{"FHIR":[{"resourceType":"Observation","id":"healthelinkL0NKSRU3YH","status":"final","code":{"coding":[{"system":"http://loinc.org","code":"71802-3","display":"What is your living situation today?"}]},"subject":{"reference":"Patient/healthelink-20240305-testcase2-MRN","display":"Rachel Huber"},"effectiveDateTime":"12/06/96 05:40","valueString":"I have a steady place to live","performer":[{"reference":"Practitioner/05269d28-15ae-5bd6-bd88-f949ccfa52d7"}],"context":{"reference":"Encounter/healthelinkL0NKSRU3YH"}},{"resourceType":"Observation","id":"healthelinkL0NKSRU3YH","status":"final","code":{"coding":[{"system":"http://loinc.org","code":"96778-6","display":"Think about the place you live. Do you have problems with any of the following?"}]},"subject":{"reference":"Patient/healthelink-20240305-testcase2-MRN","display":"Rachel Huber"},"effectiveDateTime":"12/06/96 05:40","valueString":"Lead paint or pipes","performer":[{"reference":"Practitioner/05269d28-15ae-5bd6-bd88-f949ccfa52d7"}],"context":{"reference":"Encounter/healthelinkL0NKSRU3YH"}},{"resourceType":"Observation","id":"healthelinkL0NKSRU3YH","status":"final","code":{"coding":[{"system":"http://loinc.org","code":"88122-7","display":"Within the past 12 months, you worried that your food would run out before you got money to buy more."}]},"subject":{"reference":"Patient/healthelink-20240305-testcase2-MRN","display":"Rachel Huber"},"effectiveDateTime":"12/06/96 05:40","valueString":"Often true","performer":[{"reference":"Practitioner/05269d28-15ae-5bd6-bd88-f949ccfa52d7"}],"context":{"reference":"Encounter/healthelinkL0NKSRU3YH"}},{"resourceType":"Observation","id":"healthelinkL0NKSRU3YH","status":"final","code":{"coding":[{"system":"http://loinc.org","code":"88123-5","display":"Within the past 12 months, the food you bought just didn't last and you didn't have money to get more."}]},"subject":{"reference":"Patient/healthelink-20240305-testcase2-MRN","display":"Rachel Huber"},"effectiveDateTime":"12/06/96 05:40","valueString":"Often true","performer":[{"reference":"Practitioner/05269d28-15ae-5bd6-bd88-f949ccfa52d7"}],"context":{"reference":"Encounter/healthelinkL0NKSRU3YH"}},{"resourceType":"Observation","id":"healthelinkL0NKSRU3YH","status":"final","code":{"coding":[{"system":"http://loinc.org","code":"93030-5","display":"In the past 12 months, has lack of reliable transportation kept you from medical appointments, meetings, work or from getting things needed for daily living?"}]},"subject":{"reference":"Patient/healthelink-20240305-testcase2-MRN","display":"Rachel Huber"},"effectiveDateTime":"12/06/96 05:40","valueString":"Yes","performer":[{"reference":"Practitioner/05269d28-15ae-5bd6-bd88-f949ccfa52d7"}],"context":{"reference":"Encounter/healthelinkL0NKSRU3YH"}},{"resourceType":"Observation","id":"healthelinkL0NKSRU3YH","status":"final","code":{"coding":[{"system":"http://loinc.org","code":"96779-4","display":"In the past 12 months has the electric, gas, oil, or water company threatened to shut off services in your home?"}]},"subject":{"reference":"Patient/healthelink-20240305-testcase2-MRN","display":"Rachel Huber"},"effectiveDateTime":"12/06/96 05:40","valueString":"Yes","performer":[{"reference":"Practitioner/05269d28-15ae-5bd6-bd88-f949ccfa52d7"}],"context":{"reference":"Encounter/healthelinkL0NKSRU3YH"}},{"resourceType":"Observation","id":"healthelinkL0NKSRU3YH","status":"final","code":{"coding":[{"system":"http://loinc.org","code":"95618-5","display":"How often does anyone, including family and friends, physically hurt you?"}]},"subject":{"reference":"Patient/healthelink-20240305-testcase2-MRN","display":"Rachel Huber"},"effectiveDateTime":"12/06/96 05:40","valueString":"Frequently","performer":[{"reference":"Practitioner/05269d28-15ae-5bd6-bd88-f949ccfa52d7"}],"context":{"reference":"Encounter/healthelinkL0NKSRU3YH"}},{"resourceType":"Observation","id":"healthelinkL0NKSRU3YH","status":"final","code":{"coding":[{"system":"http://loinc.org","code":"95617-7","display":"How often does anyone, including family and friends, insult or talk down to you?"}]},"subject":{"reference":"Patient/healthelink-20240305-testcase2-MRN","display":"Rachel Huber"},"effectiveDateTime":"12/06/96 05:40","valueString":"Fairly often","performer":[{"reference":"Practitioner/05269d28-15ae-5bd6-bd88-f949ccfa52d7"}],"context":{"reference":"Encounter/healthelinkL0NKSRU3YH"}},{"resourceType":"Observation","id":"healthelinkL0NKSRU3YH","status":"final","code":{"coding":[{"system":"http://loinc.org","code":"95616-9","display":"How often does anyone, including family and friends, threaten you with harm?"}]},"subject":{"reference":"Patient/healthelink-20240305-testcase2-MRN","display":"Rachel Huber"},"effectiveDateTime":"12/06/96 05:40","valueString":"Frequently","performer":[{"reference":"Practitioner/05269d28-15ae-5bd6-bd88-f949ccfa52d7"}],"context":{"reference":"Encounter/healthelinkL0NKSRU3YH"}},{"resourceType":"Observation","id":"healthelinkL0NKSRU3YH","status":"final","code":{"coding":[{"system":"http://loinc.org","code":"95615-1","display":"How often does anyone, including family and friends, scream or curse at you?"}]},"subject":{"reference":"Patient/healthelink-20240305-testcase2-MRN","display":"Rachel Huber"},"effectiveDateTime":"12/06/96 05:40","valueString":"Never","performer":[{"reference":"Practitioner/05269d28-15ae-5bd6-bd88-f949ccfa52d7"}],"context":{"reference":"Encounter/healthelinkL0NKSRU3YH"}},{"resourceType":"Observation","id":"healthelinkL0NKSRU3YH","status":"final","code":{"coding":[{"system":"http://loinc.org","code":"95614-4","display":"Total Safety Score"}]},"subject":{"reference":"Patient/healthelink-20240305-testcase2-MRN","display":"Rachel Huber"},"effectiveDateTime":"12/06/96 05:40","valueString":"15","performer":[{"reference":"Practitioner/05269d28-15ae-5bd6-bd88-f949ccfa52d7"}],"context":{"reference":"Encounter/healthelinkL0NKSRU3YH"}},{"resourceType":"Observation","id":"healthelink3SNDQJOYTO","status":"final","code":{"coding":[{"system":"http://loinc.org","code":"76513-1","display":"How hard is it for you to pay for the very basics like food, housing, medical care, and heating? Would you say it is"}]},"subject":{"reference":"Patient/healthelink-20240305-testcase2-MRN","display":"Rachel Huber"},"effectiveDateTime":"09/26/07 20:56","valueString":"Somewhat hard","performer":[{"reference":"Practitioner/05269d28-15ae-5bd6-bd88-f949ccfa52d7"}],"context":{"reference":"Encounter/healthelink3SNDQJOYTO"}},{"resourceType":"Observation","id":"healthelink3SNDQJOYTO","status":"final","code":{"coding":[{"system":"http://loinc.org","code":"96780-2","display":"Do you want help finding or keeping work or a job?"}]},"subject":{"reference":"Patient/healthelink-20240305-testcase2-MRN","display":"Rachel Huber"},"effectiveDateTime":"09/26/07 20:56","valueString":"I do not need or want help","performer":[{"reference":"Practitioner/05269d28-15ae-5bd6-bd88-f949ccfa52d7"}],"context":{"reference":"Encounter/healthelink3SNDQJOYTO"}},{"resourceType":"Observation","id":"healthelink3SNDQJOYTO","status":"final","code":{"coding":[{"system":"http://loinc.org","code":"96781-0","display":"If for any reason you need help with day-to-day activities such as bathing, preparing meals, shopping, managing finances, etc., do you get the help you need?"}]},"subject":{"reference":"Patient/healthelink-20240305-testcase2-MRN","display":"Rachel Huber"},"effectiveDateTime":"09/26/07 20:56","valueString":"I need a lot more help","performer":[{"reference":"Practitioner/05269d28-15ae-5bd6-bd88-f949ccfa52d7"}],"context":{"reference":"Encounter/healthelink3SNDQJOYTO"}},{"resourceType":"Observation","id":"healthelink3SNDQJOYTO","status":"final","code":{"coding":[{"system":"http://loinc.org","code":"93159-2","display":"How often do you feel lonely or isolated from those around you?"}]},"subject":{"reference":"Patient/healthelink-20240305-testcase2-MRN","display":"Rachel Huber"},"effectiveDateTime":"09/26/07 20:56","valueString":"Often","performer":[{"reference":"Practitioner/05269d28-15ae-5bd6-bd88-f949ccfa52d7"}],"context":{"reference":"Encounter/healthelink3SNDQJOYTO"}},{"resourceType":"Observation","id":"healthelink3SNDQJOYTO","status":"final","code":{"coding":[{"system":"http://loinc.org","code":"97027-7","display":"Do you speak a language other than English at home?"}]},"subject":{"reference":"Patient/healthelink-20240305-testcase2-MRN","display":"Rachel Huber"},"effectiveDateTime":"09/26/07 20:56","valueString":"No","performer":[{"reference":"Practitioner/05269d28-15ae-5bd6-bd88-f949ccfa52d7"}],"context":{"reference":"Encounter/healthelink3SNDQJOYTO"}},{"resourceType":"Observation","id":"healthelink3SNDQJOYTO","status":"final","code":{"coding":[{"system":"http://loinc.org","code":"96782-8","display":"Do you want help with school or training? For example, starting or completing job training or getting a high school diploma, GED or equivalent."}]},"subject":{"reference":"Patient/healthelink-20240305-testcase2-MRN","display":"Rachel Huber"},"effectiveDateTime":"09/26/07 20:56","valueString":"Yes","performer":[{"reference":"Practitioner/05269d28-15ae-5bd6-bd88-f949ccfa52d7"}],"context":{"reference":"Encounter/healthelink3SNDQJOYTO"}},{"resourceType":"Observation","id":"healthelink3SNDQJOYTO","status":"final","code":{"coding":[{"system":"http://loinc.org","code":"89555-7","display":"In the last 30 days, other than the activities you did for work, on average, how many days per week did you engage in moderate exercise (like walking fast, running, jogging, dancing, swimming, biking, or other similar activities)"}]},"subject":{"reference":"Patient/healthelink-20240305-testcase2-MRN","display":"Rachel Huber"},"effectiveDateTime":"09/26/07 20:56","valueString":"2","performer":[{"reference":"Practitioner/05269d28-15ae-5bd6-bd88-f949ccfa52d7"}],"context":{"reference":"Encounter/healthelink3SNDQJOYTO"}},{"resourceType":"Observation","id":"healthelink3SNDQJOYTO","status":"final","code":{"coding":[{"system":"http://loinc.org","code":"68516-4","display":"On average, how many minutes did you usually spend exercising at this level on one of those days?"}]},"subject":{"reference":"Patient/healthelink-20240305-testcase2-MRN","display":"Rachel Huber"},"effectiveDateTime":"09/26/07 20:56","valueString":"20","performer":[{"reference":"Practitioner/05269d28-15ae-5bd6-bd88-f949ccfa52d7"}],"context":{"reference":"Encounter/healthelink3SNDQJOYTO"}},{"resourceType":"Observation","id":"healthelink3SNDQJOYTO","status":"final","code":{"coding":[{"system":null,"code":null,"display":"Calculated weekly physical activity"}]},"subject":{"reference":"Patient/healthelink-20240305-testcase2-MRN","display":"Rachel Huber"},"effectiveDateTime":"09/26/07 20:56","valueString":"40","performer":[{"reference":"Practitioner/05269d28-15ae-5bd6-bd88-f949ccfa52d7"}],"context":{"reference":"Encounter/healthelink3SNDQJOYTO"}},{"resourceType":"Observation","id":"healthelink3SNDQJOYTO","status":"final","code":{"coding":[{"system":"http://loinc.org","code":"68517-2","display":"How many times in the past 12 months have you had 5 or more drinks in a day (males) or 4 or more drinks in a day (females)?"}]},"subject":{"reference":"Patient/healthelink-20240305-testcase2-MRN","display":"Rachel Huber"},"effectiveDateTime":"09/26/07 20:56","valueString":"Weekly","performer":[{"reference":"Practitioner/05269d28-15ae-5bd6-bd88-f949ccfa52d7"}],"context":{"reference":"Encounter/healthelink3SNDQJOYTO"}},{"resourceType":"Observation","id":"healthelink3SNDQJOYTO","status":"final","code":{"coding":[{"system":"http://loinc.org","code":"96842-0","display":"How many times in the past 12 months have you used tobacco products (like cigarettes, cigars, snuff, chew, electronic cigarettes)?"}]},"subject":{"reference":"Patient/healthelink-20240305-testcase2-MRN","display":"Rachel Huber"},"effectiveDateTime":"09/26/07 20:56","valueString":"Daily or almost daily","performer":[{"reference":"Practitioner/05269d28-15ae-5bd6-bd88-f949ccfa52d7"}],"context":{"reference":"Encounter/healthelink3SNDQJOYTO"}},{"resourceType":"Observation","id":"healthelink3SNDQJOYTO","status":"final","code":{"coding":[{"system":"http://loinc.org","code":"95530-2","display":"How many times in the past year have you used prescription drugs for non-medical reasons?"}]},"subject":{"reference":"Patient/healthelink-20240305-testcase2-MRN","display":"Rachel Huber"},"effectiveDateTime":"09/26/07 20:56","valueString":"Monthly","performer":[{"reference":"Practitioner/05269d28-15ae-5bd6-bd88-f949ccfa52d7"}],"context":{"reference":"Encounter/healthelink3SNDQJOYTO"}},{"resourceType":"Observation","id":"healthelink3SNDQJOYTO","status":"final","code":{"coding":[{"system":"http://loinc.org","code":"68524-8","display":"How many times in the past year have you used illegal drugs?"}]},"subject":{"reference":"Patient/healthelink-20240305-testcase2-MRN","display":"Rachel Huber"},"effectiveDateTime":"09/26/07 20:56","valueString":"Monthly","performer":[{"reference":"Practitioner/05269d28-15ae-5bd6-bd88-f949ccfa52d7"}],"context":{"reference":"Encounter/healthelink3SNDQJOYTO"}},{"resourceType":"Observation","id":"healthelink3SNDQJOYTO","status":"final","code":{"coding":[{"system":"http://loinc.org","code":"44250-9","display":"Little interest or pleasure in doing things?"}]},"subject":{"reference":"Patient/healthelink-20240305-testcase2-MRN","display":"Rachel Huber"},"effectiveDateTime":"09/26/07 20:56","valueString":"Not at all","performer":[{"reference":"Practitioner/05269d28-15ae-5bd6-bd88-f949ccfa52d7"}],"context":{"reference":"Encounter/healthelink3SNDQJOYTO"}},{"resourceType":"Observation","id":"healthelink3SNDQJOYTO","status":"final","code":{"coding":[{"system":"http://loinc.org","code":"44255-8","display":"Feeling down, depressed, or hopeless?"}]},"subject":{"reference":"Patient/healthelink-20240305-testcase2-MRN","display":"Rachel Huber"},"effectiveDateTime":"09/26/07 20:56","valueString":"Not at all","performer":[{"reference":"Practitioner/05269d28-15ae-5bd6-bd88-f949ccfa52d7"}],"context":{"reference":"Encounter/healthelink3SNDQJOYTO"}},{"resourceType":"Observation","id":"healthelink3SNDQJOYTO","status":"final","code":{"coding":[{"system":null,"code":null,"display":"Calculated mental health score"}]},"subject":{"reference":"Patient/healthelink-20240305-testcase2-MRN","display":"Rachel Huber"},"effectiveDateTime":"09/26/07 20:56","valueString":"0","performer":[{"reference":"Practitioner/05269d28-15ae-5bd6-bd88-f949ccfa52d7"}],"context":{"reference":"Encounter/healthelink3SNDQJOYTO"}},{"resourceType":"Observation","id":"healthelink3SNDQJOYTO","status":"final","code":{"coding":[{"system":"http://loinc.org","code":"93038-8","display":"Stress means a situation in which a person feels tense, restless, nervous, or anxious, or is unable to sleep at night because his or her mind is troubled all the time. Do you feel this kind of stress these days?"}]},"subject":{"reference":"Patient/healthelink-20240305-testcase2-MRN","display":"Rachel Huber"},"effectiveDateTime":"09/26/07 20:56","valueString":"Quite a bit","performer":[{"reference":"Practitioner/05269d28-15ae-5bd6-bd88-f949ccfa52d7"}],"context":{"reference":"Encounter/healthelink3SNDQJOYTO"}},{"resourceType":"Observation","id":"healthelink3SNDQJOYTO","status":"final","code":{"coding":[{"system":"http://loinc.org","code":"69858-9","display":"Because of a physical, mental, or emotional condition, do you have serious difficulty concentrating, remembering, or making decisions?"}]},"subject":{"reference":"Patient/healthelink-20240305-testcase2-MRN","display":"Rachel Huber"},"effectiveDateTime":"09/26/07 20:56","valueString":"No","performer":[{"reference":"Practitioner/05269d28-15ae-5bd6-bd88-f949ccfa52d7"}],"context":{"reference":"Encounter/healthelink3SNDQJOYTO"}},{"resourceType":"Observation","id":"healthelink3SNDQJOYTO","status":"final","code":{"coding":[{"system":"http://loinc.org","code":"69861-3","display":"Because of a physical, mental, or emotional condition, do you have difficulty doing errands alone such as visiting a physician's office or shopping"}]},"subject":{"reference":"Patient/healthelink-20240305-testcase2-MRN","display":"Rachel Huber"},"effectiveDateTime":"09/26/07 20:56","valueString":"Yes","performer":[{"reference":"Practitioner/05269d28-15ae-5bd6-bd88-f949ccfa52d7"}],"context":{"reference":"Encounter/healthelink3SNDQJOYTO"}}]}
