{"resourceType":"Bundle","id":"bf174970-e684-11ee-9f07-f35ea57aefea","type":"transaction","meta":{"lastUpdated":"2023-12-07T16:08:01.000Z"},"timestamp":"2024-03-20 06:40:34.19+00","entry":[{"fullUrl":"columbia-university-irving-medical-center-hospital-cumc","resource":{"resourceType":"Organization","id":"columbia-university-irving-medical-center-hospital-cumc","meta":{"lastUpdated":"2023-12-07T16:08:01.000Z","profile":["http://shinny.org/StructureDefinition/shin-ny-organization"]},"identifier":[{"system":"CUMC","value":"columbia-university-irving-medical-center-hospital-cumc"}],"active":true,"type":[{"coding":[{"system":"http://terminology.hl7.org/CodeSystem/organization-type","code":"Hospital","display":"Hospital"}]}],"name":"Columbia University Irving Medical Center","address":[{"text":"630 W 168th St. Apt-#213 #45 Street , Lane 67","city":"New York","state":"New York","postalCode":"10032"}]}},{"fullUrl":"columbia-university-irving-medical-center-hospital-cumc","resource":{"resourceType":"Organization","id":"columbia-university-irving-medical-center-hospital-cumc","meta":{"lastUpdated":"2023-12-07T16:08:01.000Z","profile":["http://shinny.org/StructureDefinition/shin-ny-organization"]},"identifier":[{"system":"CUMC","value":"columbia-university-irving-medical-center-hospital-cumc"}],"active":true,"type":[{"coding":[{"system":"http://terminology.hl7.org/CodeSystem/organization-type","code":"Hospital","display":"Hospital"}]}],"name":"Columbia University Irving Medical Center","address":[{"text":"631 W 168th St. Apt-#213 #46 Street , Lane 67","city":"New York","state":"New York","postalCode":"10032"}]}},{"fullUrl":"columbia-university-irving-medical-center-hospital-cumc","resource":{"resourceType":"Organization","id":"columbia-university-irving-medical-center-hospital-cumc","meta":{"lastUpdated":"2023-12-07T16:08:01.000Z","profile":["http://shinny.org/StructureDefinition/shin-ny-organization"]},"identifier":[{"system":"CUMC","value":"columbia-university-irving-medical-center-hospital-cumc"}],"active":true,"type":[{"coding":[{"system":"http://terminology.hl7.org/CodeSystem/organization-type","code":"Hospital","display":"Hospital"}]}],"name":"Columbia University Irving Medical Center","address":[{"text":"632 W 168th St. Apt-#213 #47 Street , Lane 67","city":"New York","state":"New York","postalCode":"10032"}]}},{"fullUrl":"albany-medical-center-hospital-amc","resource":{"resourceType":"Organization","id":"albany-medical-center-hospital-amc","meta":{"lastUpdated":"2023-02-15T14:38:06Z","profile":["http://shinny.org/StructureDefinition/shin-ny-organization"]},"identifier":[{"system":"AMC","value":"albany-medical-center-hospital-amc"}],"active":true,"type":[{"coding":[{"system":"http://terminology.hl7.org/CodeSystem/organization-type","code":"Hospital","display":"Hospital"}]}],"name":"Albany Medical Center","address":[{"text":"43 New Scotland Ave ","city":"Albany","state":"New York","postalCode":"12208"}]}},{"resource":{"resourceType":"Encounter","id":"healthelinkJJBVDJUEN5","meta":{"lastUpdated":"2023-12-07T16:08:01.000Z","profile":["http://shinny.org/StructureDefinition/shin-ny-encounter"]},"status":"Compldgdgeted","class":[{"coding":[{"system":"http://terminology.hl7.org/ValueSet/v3-ActEncounterCode","code":"fggh"}]}],"type":[{"coding":[{"system":"http://snomed.info/sct","code":"dgdfg"}]}],"subject":{"reference":"Patient/CUMC-healthelink-20240305-testcase1-MRN"}}},{"resource":{"resourceType":"Encounter","id":"healthelinkJJBVDJUEN5","meta":{"lastUpdated":"2023-12-07T16:08:01.000Z","profile":["http://shinny.org/StructureDefinition/shin-ny-encounter"]},"status":"Completed","class":[{"coding":[{"system":"http://terminology.hl7.org/ValueSet/v3-ActEncounterCode","code":"FLD"}]}],"type":[{"coding":[{"system":"SNOMED","code":"185320006"}]}],"subject":{"reference":"Patient/CUMC-healthelink-20240305-testcase1-MRN"}}},{"resource":{"resourceType":"Encounter","id":"healthelinkGYNB8RC1AS","meta":{"lastUpdated":"2023-02-15T14:38:06Z","profile":["http://shinny.org/StructureDefinition/shin-ny-encounter"]},"status":"Entered in Error","class":[{"coding":[{"system":"http://terminology.hl7.org/CodeSystem/v3-ActCode","code":"ACUTE"}]}],"type":[{"coding":[{"system":"http://snomed.info/sct","code":"32166003"}]}],"subject":{"reference":"Patient/AMC-healthelink-20240305-testcase3-MRN"}}},{"resource":{"resourceType":"Encounter","id":"healthelinkHAI33MUHEB","meta":{"lastUpdated":"2023-02-15T14:38:06Z","profile":["http://shinny.org/StructureDefinition/shin-ny-encounter"]},"status":"Completed","class":[{"coding":[{"system":"http://terminology.hl7.org/ValueSet/v3-ActEncounterCode","code":"FLD"}]}],"type":[{"coding":[{"system":"http://snomed.info/sct","code":"185320006"}]}],"subject":{"reference":"Patient/CUMC-healthelink-20240305-testcase1-MRN"}}},{"resource":{"resourceType":"Encounter","id":"healthelinkHAI35MUHEB","meta":{"lastUpdated":"2023-02-15T14:38:06Z","profile":["http://shinny.org/StructureDefinition/shin-ny-encounter"]},"status":"Completed","class":[{"coding":[{"system":"http://terminology.hl7.org/ValueSet/v3-ActEncounterCode","code":"FLD"}]}],"type":[{"coding":[{"system":"http://snomed.info/sct","code":"261665006"}]}],"subject":{"reference":"Patient/CUMC-healthelink-20240307-testcase1-MRN"}}},{"resource":{"resourceType":"Encounter","id":"healthelinkJJBVDJUEN5","meta":{"lastUpdated":"2023-12-07T16:08:01.000Z","profile":["http://shinny.org/StructureDefinition/shin-ny-encounter"]},"status":null,"class":[{"coding":[{"system":"http://terminology.hl7.org/ValueSet/v3-ActEncounterCode","code":"FLD"}]}],"type":[{"coding":[{"system":"http://snomed.info/sct","code":"185320006"}]}],"subject":{"reference":"Patient/CUMC-healthelink-20240305-testcase1-MRN"}}},{"resource":{"resourceType":"Encounter","id":"healthelinkJJBVDJUEN5","meta":{"lastUpdated":"2023-12-07T16:08:01.000Z","profile":["http://shinny.org/StructureDefinition/shin-ny-encounter"]},"status":"Completed","class":[{"coding":[{"system":"http://terminology.hl7.org/ValueSet/v3-ActEncounterCode","code":"FLD"}]}],"type":[{"coding":[{"system":"SNOMED-CT","code":"185320006"}]}],"subject":{"reference":"Patient/CUMC-healthelink-20240305-testcase1-MRN"}}},{"resource":{"resourceType":"Encounter","id":"healthelinkHAI33MUHEB","meta":{"lastUpdated":"2023-12-07T16:08:01.000Z","profile":["http://shinny.org/StructureDefinition/shin-ny-encounter"]},"status":"Completed","class":[{"coding":[{"system":"http://terminology.hl7.org/ValueSet/v3-ActEncounterCode","code":"FLD"}]}],"type":[{"coding":[{"system":"http://snomed.info/sct","code":"185320006"}]}],"subject":{"reference":"Patient/CUMC-healthelink-20240305-testcase1-MRN"}}},{"resource":{"resourceType":"Encounter","id":"healthelinkJJBVDJUEN5","meta":{"lastUpdated":"2023-12-07T16:08:01.000Z","profile":["http://shinny.org/StructureDefinition/shin-ny-encounter"]},"status":"444","class":[{"coding":[{"system":"http://terminology.hl7.org/ValueSet/v3-ActEncounterCode","code":"FLD"}]}],"type":[{"coding":[{"system":"http://snomed.info/sct","code":"185320006"}]}],"subject":{"reference":"Patient/CUMC-healthelink-20240305-testcase1-MRN"}}},{"resource":{"resourceType":"Encounter","id":"healthelinkHAI34MUHEB","meta":{"lastUpdated":"2023-02-15T14:38:06Z","profile":["http://shinny.org/StructureDefinition/shin-ny-encounter"]},"status":"Completed","class":[{"coding":[{"system":"http://terminology.hl7.org/ValueSet/v3-ActEncounterCode","code":"FLD"}]}],"type":[{"coding":[{"system":"http://snomed.info/sct","code":"185320006"}]}],"subject":{"reference":"Patient/CUMC-healthelink-20240306-testcase1-MRN"}}},{"resource":{"resourceType":"Encounter","id":"healthelinkJJBVDJUEN5","meta":{"lastUpdated":"2023-12-07T16:08:01.000Z","profile":["http://shinny.org/StructureDefinition/shin-ny-encounter"]},"status":"Completed","class":[{"coding":[{"system":"http://terminology.hl7.org/ValueSet/v3-ActEncounterCode","code":"FLD"}]}],"type":[{"coding":[{"system":"http://snomed.info/sct","code":"185320006"}]}],"subject":{"reference":"Patient/CUMC-healthelink-20240305-testcase1-MRN"}}},{"resource":{"resourceType":"Encounter","id":"healthelinkJJBVDJUEN5","meta":{"lastUpdated":"2023-12-07T16:08:01.000Z","profile":["http://shinny.org/StructureDefinition/shin-ny-encounter"]},"status":"Unknown","class":[{"coding":[{"system":"http://terminology.hl7.org/ValueSet/v3-ActEncounterCode","code":"FLD"}]}],"type":[{"coding":[{"system":"http://snomed.info/sct","code":"185320006"}]}],"subject":{"reference":"Patient/CUMC-healthelink-20240305-testcase1-MRN"}}},{"resource":{"resourceType":"Encounter","id":"healthelinkJJBVDJUEN5","meta":{"lastUpdated":"2023-12-07T16:08:01.000Z","profile":["http://shinny.org/StructureDefinition/shin-ny-encounter"]},"status":"3444","class":[{"coding":[{"system":"http://terminology.hl7.org/ValueSet/v3-ActEncounterCode","code":"111"}]}],"type":[{"coding":[{"system":"http://snomed.info/sct","code":"454"}]}],"subject":{"reference":"Patient/CUMC-healthelink-20240305-testcase1-MRN"}}},{"resource":{"resourceType":"Encounter","id":"healthelinkJJBVDJUEN5","meta":{"lastUpdated":"2023-12-07T16:08:01.000Z","profile":["http://shinny.org/StructureDefinition/shin-ny-encounter"]},"status":"completed","class":[{"coding":[{"system":"http://terminology.hl7.org/ValueSet/v3-ActEncounterCode","code":"fld"}]}],"type":[{"coding":[{"system":"http://snomed.info/sct","code":"185320006"}]}],"subject":{"reference":"Patient/CUMC-healthelink-20240305-testcase1-MRN"}}},{"resource":{"resourceType":"Encounter","id":"healthelinkHAI33MUHEB","meta":{"lastUpdated":"2023-02-15T14:38:06Z","profile":["http://shinny.org/StructureDefinition/shin-ny-encounter"]},"status":"Completed","class":[{"coding":[{"system":"http://terminology.hl7.org/ValueSet/v3-ActEncounterCode","code":"FLD"}]}],"type":[{"coding":[{"system":"http://snomed.info/sct","code":"261665006"}]}],"subject":{"reference":"Patient/CUMC-healthelink-20240305-testcase1-MRN"}}},{"resource":{"resourceType":"Encounter","id":"healthelink19VCFAQISN","meta":{"lastUpdated":"03/05/94 13:08","profile":["http://shinny.org/StructureDefinition/shin-ny-encounter"]},"status":"Entered in Error","class":[{"coding":[{"system":"http://terminology.hl7.org/CodeSystem/v3-ActCode","code":"ACUTE"}]}],"type":[{"coding":[{"system":"http://snomed.info/sct","code":"32166003"}]}],"subject":{"reference":"Patient/AMC-healthelink-20240305-testcase3-MRN"}}},{"fullUrl":"observation71802-3","resource":{"resourceType":"Observation","id":"observation71802-3","meta":{"lastUpdated":"2023-02-15T14:38:06Z","profile":["http://hl7.org/fhir/us/sdoh-clinicalcare/StructureDefinition/SDOHCC-ObservationScreeningResponse"]},"status":"unknown","category":[{"coding":[{"system":"http://terminology.hl7.org/CodeSystem/observation-category","code":"social-history","display":"Social History"}]},{"coding":[{"system":"http://terminology.hl7.org/CodeSystem/observation-category","code":"survey","display":"Survey"}]}],"code":{"coding":[{"system":"http://loinc.org","code":"71802-3","display":"What is your living situation today?"}]},"subject":{"reference":"Patient/healthelink-20240305-testcase3-MRN"},"effectiveDateTime":"2023-02-15T14:38:06Z","issued":"2023-02-15T14:38:06Z","valueCodeableConcept":{"coding":[{"system":"http://loinc.org","code":"LA31994-9","display":"I have a place to live today, but I am worried about losing it in the future"}]}}},{"fullUrl":"observation96778-6","resource":{"resourceType":"Observation","id":"observation96778-6","meta":{"lastUpdated":"2023-02-15T14:38:06Z","profile":["http://hl7.org/fhir/us/sdoh-clinicalcare/StructureDefinition/SDOHCC-ObservationScreeningResponse"]},"status":"unknown","category":[{"coding":[{"system":"http://terminology.hl7.org/CodeSystem/observation-category","code":"social-history","display":"Social History"}]},{"coding":[{"system":"http://terminology.hl7.org/CodeSystem/observation-category","code":"survey","display":"Survey"}]}],"code":{"coding":[{"system":"http://loinc.org","code":"96778-6","display":"Think about the place you live. Do you have problems with any of the following?"}]},"subject":{"reference":"Patient/healthelink-20240305-testcase3-MRN"},"effectiveDateTime":"2023-02-15T14:38:06Z","issued":"2023-02-15T14:38:06Z","valueCodeableConcept":{"coding":[{"system":"http://loinc.org","code":"LA31997-2","display":"Lead paint or pipes"}]}}},{"fullUrl":"observation88122-7","resource":{"resourceType":"Observation","id":"observation88122-7","meta":{"lastUpdated":"2023-02-15T14:38:06Z","profile":["http://hl7.org/fhir/us/sdoh-clinicalcare/StructureDefinition/SDOHCC-ObservationScreeningResponse"]},"status":"unknown","category":[{"coding":[{"system":"http://terminology.hl7.org/CodeSystem/observation-category","code":"social-history","display":"Social History"}]},{"coding":[{"system":"http://terminology.hl7.org/CodeSystem/observation-category","code":"survey","display":"Survey"}]}],"code":{"coding":[{"system":"http://loinc.org","code":"88122-7","display":"Within the past 12 months, you worried that your food would run out before you got money to buy more."}]},"subject":{"reference":"Patient/healthelink-20240305-testcase3-MRN"},"effectiveDateTime":"2023-02-15T14:38:06Z","issued":"2023-02-15T14:38:06Z","valueCodeableConcept":{"coding":[{"system":"http://loinc.org","code":"LA6729-3","display":"Sometimes true"}]}}},{"fullUrl":"observation88123-5","resource":{"resourceType":"Observation","id":"observation88123-5","meta":{"lastUpdated":"2023-02-15T14:38:06Z","profile":["http://hl7.org/fhir/us/sdoh-clinicalcare/StructureDefinition/SDOHCC-ObservationScreeningResponse"]},"status":"unknown","category":[{"coding":[{"system":"http://terminology.hl7.org/CodeSystem/observation-category","code":"social-history","display":"Social History"}]},{"coding":[{"system":"http://terminology.hl7.org/CodeSystem/observation-category","code":"survey","display":"Survey"}]}],"code":{"coding":[{"system":"http://loinc.org","code":"88123-5","display":"Within the past 12 months, the food you bought just didn't last and you didn't have money to get more."}]},"subject":{"reference":"Patient/healthelink-20240305-testcase3-MRN"},"effectiveDateTime":"2023-02-15T14:38:06Z","issued":"2023-02-15T14:38:06Z","valueCodeableConcept":{"coding":[{"system":"http://loinc.org","code":"LA6729-3","display":"Sometimes true"}]}}},{"fullUrl":"observation93030-5","resource":{"resourceType":"Observation","id":"observation93030-5","meta":{"lastUpdated":"2023-02-15T14:38:06Z","profile":["http://hl7.org/fhir/us/sdoh-clinicalcare/StructureDefinition/SDOHCC-ObservationScreeningResponse"]},"status":"unknown","category":[{"coding":[{"system":"http://terminology.hl7.org/CodeSystem/observation-category","code":"social-history","display":"Social History"}]},{"coding":[{"system":"http://terminology.hl7.org/CodeSystem/observation-category","code":"survey","display":"Survey"}]}],"code":{"coding":[{"system":"http://loinc.org","code":"93030-5","display":"In the past 12 months, has lack of reliable transportation kept you from medical appointments, meetings, work or from getting things needed for daily living?"}]},"subject":{"reference":"Patient/healthelink-20240305-testcase3-MRN"},"effectiveDateTime":"2023-02-15T14:38:06Z","issued":"2023-02-15T14:38:06Z","valueCodeableConcept":{"coding":[{"system":"http://loinc.org","code":"LA33-6","display":"Yes"}]}}},{"fullUrl":"observation96779-4","resource":{"resourceType":"Observation","id":"observation96779-4","meta":{"lastUpdated":"2023-02-15T14:38:06Z","profile":["http://hl7.org/fhir/us/sdoh-clinicalcare/StructureDefinition/SDOHCC-ObservationScreeningResponse"]},"status":"unknown","category":[{"coding":[{"system":"http://terminology.hl7.org/CodeSystem/observation-category","code":"social-history","display":"Social History"}]},{"coding":[{"system":"http://terminology.hl7.org/CodeSystem/observation-category","code":"survey","display":"Survey"}]}],"code":{"coding":[{"system":"http://loinc.org","code":"96779-4","display":"In the past 12 months has the electric, gas, oil, or water company threatened to shut off services in your home?"}]},"subject":{"reference":"Patient/healthelink-20240305-testcase3-MRN"},"effectiveDateTime":"2023-02-15T14:38:06Z","issued":"2023-02-15T14:38:06Z","valueCodeableConcept":{"coding":[{"system":"http://loinc.org","code":"LA32002-0","display":"Already shut off"}]}}},{"fullUrl":"observation95618-5","resource":{"resourceType":"Observation","id":"observation95618-5","meta":{"lastUpdated":"2023-02-15T14:38:06Z","profile":["http://hl7.org/fhir/us/sdoh-clinicalcare/StructureDefinition/SDOHCC-ObservationScreeningResponse"]},"status":"unknown","category":[{"coding":[{"system":"http://terminology.hl7.org/CodeSystem/observation-category","code":"social-history","display":"Social History"}]},{"coding":[{"system":"http://terminology.hl7.org/CodeSystem/observation-category","code":"survey","display":"Survey"}]}],"code":{"coding":[{"system":"http://loinc.org","code":"95618-5","display":"How often does anyone, including family and friends, physically hurt you?"}]},"subject":{"reference":"Patient/healthelink-20240305-testcase3-MRN"},"effectiveDateTime":"2023-02-15T14:38:06Z","issued":"2023-02-15T14:38:06Z","valueCodeableConcept":{"coding":[{"system":"http://loinc.org","code":"LA10066-1","display":"Rarely"}]}}},{"fullUrl":"observation95617-7","resource":{"resourceType":"Observation","id":"observation95617-7","meta":{"lastUpdated":"2023-02-15T14:38:06Z","profile":["http://hl7.org/fhir/us/sdoh-clinicalcare/StructureDefinition/SDOHCC-ObservationScreeningResponse"]},"status":"unknown","category":[{"coding":[{"system":"http://terminology.hl7.org/CodeSystem/observation-category","code":"social-history","display":"Social History"}]},{"coding":[{"system":"http://terminology.hl7.org/CodeSystem/observation-category","code":"survey","display":"Survey"}]}],"code":{"coding":[{"system":"http://loinc.org","code":"95617-7","display":"How often does anyone, including family and friends, insult or talk down to you?"}]},"subject":{"reference":"Patient/healthelink-20240305-testcase3-MRN"},"effectiveDateTime":"2023-02-15T14:38:06Z","issued":"2023-02-15T14:38:06Z","valueCodeableConcept":{"coding":[{"system":"http://loinc.org","code":"LA6270-8","display":"Never"}]}}},{"fullUrl":"observation95616-9","resource":{"resourceType":"Observation","id":"observation95616-9","meta":{"lastUpdated":"2023-02-15T14:38:06Z","profile":["http://hl7.org/fhir/us/sdoh-clinicalcare/StructureDefinition/SDOHCC-ObservationScreeningResponse"]},"status":"unknown","category":[{"coding":[{"system":"http://terminology.hl7.org/CodeSystem/observation-category","code":"social-history","display":"Social History"}]},{"coding":[{"system":"http://terminology.hl7.org/CodeSystem/observation-category","code":"survey","display":"Survey"}]}],"code":{"coding":[{"system":"http://loinc.org","code":"95616-9","display":"How often does anyone, including family and friends, threaten you with harm?"}]},"subject":{"reference":"Patient/healthelink-20240305-testcase3-MRN"},"effectiveDateTime":"2023-02-15T14:38:06Z","issued":"2023-02-15T14:38:06Z","valueCodeableConcept":{"coding":[{"system":"http://loinc.org","code":"LA16644-9","display":"Fairly often"}]}}},{"fullUrl":"observation95615-1","resource":{"resourceType":"Observation","id":"observation95615-1","meta":{"lastUpdated":"2023-02-15T14:38:06Z","profile":["http://hl7.org/fhir/us/sdoh-clinicalcare/StructureDefinition/SDOHCC-ObservationScreeningResponse"]},"status":"unknown","category":[{"coding":[{"system":"http://terminology.hl7.org/CodeSystem/observation-category","code":"social-history","display":"Social History"}]},{"coding":[{"system":"http://terminology.hl7.org/CodeSystem/observation-category","code":"survey","display":"Survey"}]}],"code":{"coding":[{"system":"http://loinc.org","code":"95615-1","display":"How often does anyone, including family and friends, scream or curse at you?"}]},"subject":{"reference":"Patient/healthelink-20240305-testcase3-MRN"},"effectiveDateTime":"2023-02-15T14:38:06Z","issued":"2023-02-15T14:38:06Z","valueCodeableConcept":{"coding":[{"system":"http://loinc.org","code":"LA10082-8","display":"Sometimes"}]}}},{"fullUrl":"observation95614-4","resource":{"resourceType":"Observation","id":"observation95614-4","meta":{"lastUpdated":"2023-02-15T14:38:06Z","profile":["http://hl7.org/fhir/us/sdoh-clinicalcare/StructureDefinition/SDOHCC-ObservationScreeningResponse"]},"status":"unknown","category":[{"coding":[{"system":"http://terminology.hl7.org/CodeSystem/observation-category","code":"social-history","display":"Social History"}]},{"coding":[{"system":"http://terminology.hl7.org/CodeSystem/observation-category","code":"survey","display":"Survey"}]}],"code":{"coding":[{"system":"http://loinc.org","code":"95614-4","display":"Total Safety Score"}]},"subject":{"reference":"Patient/healthelink-20240305-testcase3-MRN"},"effectiveDateTime":"2023-02-15T14:38:06Z","issued":"2023-02-15T14:38:06Z","valueCodeableConcept":{"coding":[{"system":"http://loinc.org","code":null,"display":"10"}]}}},{"fullUrl":"observation76513-1","resource":{"resourceType":"Observation","id":"observation76513-1","meta":{"lastUpdated":"03/05/94 13:08","profile":["http://hl7.org/fhir/us/sdoh-clinicalcare/StructureDefinition/SDOHCC-ObservationScreeningResponse"]},"status":"unknown","category":[{"coding":[{"system":"http://terminology.hl7.org/CodeSystem/observation-category","code":"social-history","display":"Social History"}]},{"coding":[{"system":"http://terminology.hl7.org/CodeSystem/observation-category","code":"survey","display":"Survey"}]}],"code":{"coding":[{"system":"http://loinc.org","code":"76513-1","display":"How hard is it for you to pay for the very basics like food, housing, medical care, and heating? Would you say it is"}]},"subject":{"reference":"Patient/healthelink-20240305-testcase3-MRN"},"effectiveDateTime":"03/05/94 13:08","issued":"03/05/94 13:08","valueCodeableConcept":{"coding":[{"system":"http://loinc.org","code":"LA15832-1","display":"Very hard"}]}}},{"fullUrl":"observation96780-2","resource":{"resourceType":"Observation","id":"observation96780-2","meta":{"lastUpdated":"03/05/94 13:08","profile":["http://hl7.org/fhir/us/sdoh-clinicalcare/StructureDefinition/SDOHCC-ObservationScreeningResponse"]},"status":"unknown","category":[{"coding":[{"system":"http://terminology.hl7.org/CodeSystem/observation-category","code":"social-history","display":"Social History"}]},{"coding":[{"system":"http://terminology.hl7.org/CodeSystem/observation-category","code":"survey","display":"Survey"}]}],"code":{"coding":[{"system":"http://loinc.org","code":"96780-2","display":"Do you want help finding or keeping work or a job?"}]},"subject":{"reference":"Patient/healthelink-20240305-testcase3-MRN"},"effectiveDateTime":"03/05/94 13:08","issued":"03/05/94 13:08","valueCodeableConcept":{"coding":[{"system":"http://loinc.org","code":"LA31983-2","display":"I do not need or want help"}]}}},{"fullUrl":"observation96781-0","resource":{"resourceType":"Observation","id":"observation96781-0","meta":{"lastUpdated":"03/05/94 13:08","profile":["http://hl7.org/fhir/us/sdoh-clinicalcare/StructureDefinition/SDOHCC-ObservationScreeningResponse"]},"status":"unknown","category":[{"coding":[{"system":"http://terminology.hl7.org/CodeSystem/observation-category","code":"social-history","display":"Social History"}]},{"coding":[{"system":"http://terminology.hl7.org/CodeSystem/observation-category","code":"survey","display":"Survey"}]}],"code":{"coding":[{"system":"http://loinc.org","code":"96781-0","display":"If for any reason you need help with day-to-day activities such as bathing, preparing meals, shopping, managing finances, etc., do you get the help you need?"}]},"subject":{"reference":"Patient/healthelink-20240305-testcase3-MRN"},"effectiveDateTime":"03/05/94 13:08","issued":"03/05/94 13:08","valueCodeableConcept":{"coding":[{"system":"http://loinc.org","code":"LA31979-0","display":"I need a lot more help"}]}}},{"fullUrl":"observation93159-2","resource":{"resourceType":"Observation","id":"observation93159-2","meta":{"lastUpdated":"03/05/94 13:08","profile":["http://hl7.org/fhir/us/sdoh-clinicalcare/StructureDefinition/SDOHCC-ObservationScreeningResponse"]},"status":"unknown","category":[{"coding":[{"system":"http://terminology.hl7.org/CodeSystem/observation-category","code":"social-history","display":"Social History"}]},{"coding":[{"system":"http://terminology.hl7.org/CodeSystem/observation-category","code":"survey","display":"Survey"}]}],"code":{"coding":[{"system":"http://loinc.org","code":"93159-2","display":"How often do you feel lonely or isolated from those around you?"}]},"subject":{"reference":"Patient/healthelink-20240305-testcase3-MRN"},"effectiveDateTime":"03/05/94 13:08","issued":"03/05/94 13:08","valueCodeableConcept":{"coding":[{"system":"http://loinc.org","code":"LA10044-8","display":"Often"}]}}},{"fullUrl":"observation97027-7","resource":{"resourceType":"Observation","id":"observation97027-7","meta":{"lastUpdated":"03/05/94 13:08","profile":["http://hl7.org/fhir/us/sdoh-clinicalcare/StructureDefinition/SDOHCC-ObservationScreeningResponse"]},"status":"unknown","category":[{"coding":[{"system":"http://terminology.hl7.org/CodeSystem/observation-category","code":"social-history","display":"Social History"}]},{"coding":[{"system":"http://terminology.hl7.org/CodeSystem/observation-category","code":"survey","display":"Survey"}]}],"code":{"coding":[{"system":"http://loinc.org","code":"97027-7","display":"Do you speak a language other than English at home?"}]},"subject":{"reference":"Patient/healthelink-20240305-testcase3-MRN"},"effectiveDateTime":"03/05/94 13:08","issued":"03/05/94 13:08","valueCodeableConcept":{"coding":[{"system":"http://loinc.org","code":"LA32-8","display":"No"}]}}},{"fullUrl":"observation96782-8","resource":{"resourceType":"Observation","id":"observation96782-8","meta":{"lastUpdated":"03/05/94 13:08","profile":["http://hl7.org/fhir/us/sdoh-clinicalcare/StructureDefinition/SDOHCC-ObservationScreeningResponse"]},"status":"unknown","category":[{"coding":[{"system":"http://terminology.hl7.org/CodeSystem/observation-category","code":"social-history","display":"Social History"}]},{"coding":[{"system":"http://terminology.hl7.org/CodeSystem/observation-category","code":"survey","display":"Survey"}]}],"code":{"coding":[{"system":"http://loinc.org","code":"96782-8","display":"Do you want help with school or training? For example, starting or completing job training or getting a high school diploma, GED or equivalent."}]},"subject":{"reference":"Patient/healthelink-20240305-testcase3-MRN"},"effectiveDateTime":"03/05/94 13:08","issued":"03/05/94 13:08","valueCodeableConcept":{"coding":[{"system":"http://loinc.org","code":"LA33-6","display":"Yes"}]}}},{"fullUrl":"observation89555-7","resource":{"resourceType":"Observation","id":"observation89555-7","meta":{"lastUpdated":"03/05/94 13:08","profile":["http://hl7.org/fhir/us/sdoh-clinicalcare/StructureDefinition/SDOHCC-ObservationScreeningResponse"]},"status":"unknown","category":[{"coding":[{"system":"http://terminology.hl7.org/CodeSystem/observation-category","code":"social-history","display":"Social History"}]},{"coding":[{"system":"http://terminology.hl7.org/CodeSystem/observation-category","code":"survey","display":"Survey"}]}],"code":{"coding":[{"system":"http://loinc.org","code":"89555-7","display":"In the last 30 days, other than the activities you did for work, on average, how many days per week did you engage in moderate exercise (like walking fast, running, jogging, dancing, swimming, biking, or other similar activities)"}]},"subject":{"reference":"Patient/healthelink-20240305-testcase3-MRN"},"effectiveDateTime":"03/05/94 13:08","issued":"03/05/94 13:08","valueCodeableConcept":{"coding":[{"system":"http://loinc.org","code":"LA6113-0","display":"2"}]}}},{"fullUrl":"observation68516-4","resource":{"resourceType":"Observation","id":"observation68516-4","meta":{"lastUpdated":"03/05/94 13:08","profile":["http://hl7.org/fhir/us/sdoh-clinicalcare/StructureDefinition/SDOHCC-ObservationScreeningResponse"]},"status":"unknown","category":[{"coding":[{"system":"http://terminology.hl7.org/CodeSystem/observation-category","code":"social-history","display":"Social History"}]},{"coding":[{"system":"http://terminology.hl7.org/CodeSystem/observation-category","code":"survey","display":"Survey"}]}],"code":{"coding":[{"system":"http://loinc.org","code":"68516-4","display":"On average, how many minutes did you usually spend exercising at this level on one of those days?"}]},"subject":{"reference":"Patient/healthelink-20240305-testcase3-MRN"},"effectiveDateTime":"03/05/94 13:08","issued":"03/05/94 13:08","valueCodeableConcept":{"coding":[{"system":"http://loinc.org","code":"LA28853-2","display":"60"}]}}},{"fullUrl":"observation","resource":{"resourceType":"Observation","id":"observation","meta":{"lastUpdated":"03/05/94 13:08","profile":["http://hl7.org/fhir/us/sdoh-clinicalcare/StructureDefinition/SDOHCC-ObservationScreeningResponse"]},"status":"unknown","category":[{"coding":[{"system":"http://terminology.hl7.org/CodeSystem/observation-category","code":"social-history","display":"Social History"}]},{"coding":[{"system":"http://terminology.hl7.org/CodeSystem/observation-category","code":"survey","display":"Survey"}]}],"code":{"coding":[{"system":"http://loinc.org","code":null,"display":"Calculated weekly physical activity"}]},"subject":{"reference":"Patient/healthelink-20240305-testcase3-MRN"},"effectiveDateTime":"03/05/94 13:08","issued":"03/05/94 13:08","valueCodeableConcept":{"coding":[{"system":"http://loinc.org","code":null,"display":"120"}]}}},{"fullUrl":"observation68517-2","resource":{"resourceType":"Observation","id":"observation68517-2","meta":{"lastUpdated":"03/05/94 13:08","profile":["http://hl7.org/fhir/us/sdoh-clinicalcare/StructureDefinition/SDOHCC-ObservationScreeningResponse"]},"status":"unknown","category":[{"coding":[{"system":"http://terminology.hl7.org/CodeSystem/observation-category","code":"social-history","display":"Social History"}]},{"coding":[{"system":"http://terminology.hl7.org/CodeSystem/observation-category","code":"survey","display":"Survey"}]}],"code":{"coding":[{"system":"http://loinc.org","code":"68517-2","display":"How many times in the past 12 months have you had 5 or more drinks in a day (males) or 4 or more drinks in a day (females)?"}]},"subject":{"reference":"Patient/healthelink-20240305-testcase3-MRN"},"effectiveDateTime":"03/05/94 13:08","issued":"03/05/94 13:08","valueCodeableConcept":{"coding":[{"system":"http://loinc.org","code":"LA6270-8","display":"Never"}]}}},{"fullUrl":"observation96842-0","resource":{"resourceType":"Observation","id":"observation96842-0","meta":{"lastUpdated":"03/05/94 13:08","profile":["http://hl7.org/fhir/us/sdoh-clinicalcare/StructureDefinition/SDOHCC-ObservationScreeningResponse"]},"status":"unknown","category":[{"coding":[{"system":"http://terminology.hl7.org/CodeSystem/observation-category","code":"social-history","display":"Social History"}]},{"coding":[{"system":"http://terminology.hl7.org/CodeSystem/observation-category","code":"survey","display":"Survey"}]}],"code":{"coding":[{"system":"http://loinc.org","code":"96842-0","display":"How many times in the past 12 months have you used tobacco products (like cigarettes, cigars, snuff, chew, electronic cigarettes)?"}]},"subject":{"reference":"Patient/healthelink-20240305-testcase3-MRN"},"effectiveDateTime":"03/05/94 13:08","issued":"03/05/94 13:08","valueCodeableConcept":{"coding":[{"system":"http://loinc.org","code":"LA18891-4","display":"Weekly"}]}}},{"fullUrl":"observation95530-2","resource":{"resourceType":"Observation","id":"observation95530-2","meta":{"lastUpdated":"03/05/94 13:08","profile":["http://hl7.org/fhir/us/sdoh-clinicalcare/StructureDefinition/SDOHCC-ObservationScreeningResponse"]},"status":"unknown","category":[{"coding":[{"system":"http://terminology.hl7.org/CodeSystem/observation-category","code":"social-history","display":"Social History"}]},{"coding":[{"system":"http://terminology.hl7.org/CodeSystem/observation-category","code":"survey","display":"Survey"}]}],"code":{"coding":[{"system":"http://loinc.org","code":"95530-2","display":"How many times in the past year have you used prescription drugs for non-medical reasons?"}]},"subject":{"reference":"Patient/healthelink-20240305-testcase3-MRN"},"effectiveDateTime":"03/05/94 13:08","issued":"03/05/94 13:08","valueCodeableConcept":{"coding":[{"system":"http://loinc.org","code":"LA26460-8","display":"Once or Twice"}]}}},{"fullUrl":"observation68524-8","resource":{"resourceType":"Observation","id":"observation68524-8","meta":{"lastUpdated":"03/05/94 13:08","profile":["http://hl7.org/fhir/us/sdoh-clinicalcare/StructureDefinition/SDOHCC-ObservationScreeningResponse"]},"status":"unknown","category":[{"coding":[{"system":"http://terminology.hl7.org/CodeSystem/observation-category","code":"social-history","display":"Social History"}]},{"coding":[{"system":"http://terminology.hl7.org/CodeSystem/observation-category","code":"survey","display":"Survey"}]}],"code":{"coding":[{"system":"http://loinc.org","code":"68524-8","display":"How many times in the past year have you used illegal drugs?"}]},"subject":{"reference":"Patient/healthelink-20240305-testcase3-MRN"},"effectiveDateTime":"03/05/94 13:08","issued":"03/05/94 13:08","valueCodeableConcept":{"coding":[{"system":"http://loinc.org","code":"LA6270-8","display":"Never"}]}}},{"fullUrl":"observation44250-9","resource":{"resourceType":"Observation","id":"observation44250-9","meta":{"lastUpdated":"03/05/94 13:08","profile":["http://hl7.org/fhir/us/sdoh-clinicalcare/StructureDefinition/SDOHCC-ObservationScreeningResponse"]},"status":"unknown","category":[{"coding":[{"system":"http://terminology.hl7.org/CodeSystem/observation-category","code":"social-history","display":"Social History"}]},{"coding":[{"system":"http://terminology.hl7.org/CodeSystem/observation-category","code":"survey","display":"Survey"}]}],"code":{"coding":[{"system":"http://loinc.org","code":"44250-9","display":"Little interest or pleasure in doing things?"}]},"subject":{"reference":"Patient/healthelink-20240305-testcase3-MRN"},"effectiveDateTime":"03/05/94 13:08","issued":"03/05/94 13:08","valueCodeableConcept":{"coding":[{"system":"http://loinc.org","code":"LA6571-9","display":"Nearly every day"}]}}},{"fullUrl":"observation44255-8","resource":{"resourceType":"Observation","id":"observation44255-8","meta":{"lastUpdated":"03/05/94 13:08","profile":["http://hl7.org/fhir/us/sdoh-clinicalcare/StructureDefinition/SDOHCC-ObservationScreeningResponse"]},"status":"unknown","category":[{"coding":[{"system":"http://terminology.hl7.org/CodeSystem/observation-category","code":"social-history","display":"Social History"}]},{"coding":[{"system":"http://terminology.hl7.org/CodeSystem/observation-category","code":"survey","display":"Survey"}]}],"code":{"coding":[{"system":"http://loinc.org","code":"44255-8","display":"Feeling down, depressed, or hopeless?"}]},"subject":{"reference":"Patient/healthelink-20240305-testcase3-MRN"},"effectiveDateTime":"03/05/94 13:08","issued":"03/05/94 13:08","valueCodeableConcept":{"coding":[{"system":"http://loinc.org","code":"LA6569-3","display":"Several days"}]}}},{"fullUrl":"observation","resource":{"resourceType":"Observation","id":"observation","meta":{"lastUpdated":"03/05/94 13:08","profile":["http://hl7.org/fhir/us/sdoh-clinicalcare/StructureDefinition/SDOHCC-ObservationScreeningResponse"]},"status":"unknown","category":[{"coding":[{"system":"http://terminology.hl7.org/CodeSystem/observation-category","code":"social-history","display":"Social History"}]},{"coding":[{"system":"http://terminology.hl7.org/CodeSystem/observation-category","code":"survey","display":"Survey"}]}],"code":{"coding":[{"system":"http://loinc.org","code":null,"display":"Calculated mental health score"}]},"subject":{"reference":"Patient/healthelink-20240305-testcase3-MRN"},"effectiveDateTime":"03/05/94 13:08","issued":"03/05/94 13:08","valueCodeableConcept":{"coding":[{"system":"http://loinc.org","code":null,"display":"4"}]}}},{"fullUrl":"observation93038-8","resource":{"resourceType":"Observation","id":"observation93038-8","meta":{"lastUpdated":"03/05/94 13:08","profile":["http://hl7.org/fhir/us/sdoh-clinicalcare/StructureDefinition/SDOHCC-ObservationScreeningResponse"]},"status":"unknown","category":[{"coding":[{"system":"http://terminology.hl7.org/CodeSystem/observation-category","code":"social-history","display":"Social History"}]},{"coding":[{"system":"http://terminology.hl7.org/CodeSystem/observation-category","code":"survey","display":"Survey"}]}],"code":{"coding":[{"system":"http://loinc.org","code":"93038-8","display":"Stress means a situation in which a person feels tense, restless, nervous, or anxious, or is unable to sleep at night because his or her mind is troubled all the time. Do you feel this kind of stress these days?"}]},"subject":{"reference":"Patient/healthelink-20240305-testcase3-MRN"},"effectiveDateTime":"03/05/94 13:08","issued":"03/05/94 13:08","valueCodeableConcept":{"coding":[{"system":"http://loinc.org","code":"LA13902-4","display":"Quite a bit"}]}}},{"fullUrl":"observation69858-9","resource":{"resourceType":"Observation","id":"observation69858-9","meta":{"lastUpdated":"03/05/94 13:08","profile":["http://hl7.org/fhir/us/sdoh-clinicalcare/StructureDefinition/SDOHCC-ObservationScreeningResponse"]},"status":"unknown","category":[{"coding":[{"system":"http://terminology.hl7.org/CodeSystem/observation-category","code":"social-history","display":"Social History"}]},{"coding":[{"system":"http://terminology.hl7.org/CodeSystem/observation-category","code":"survey","display":"Survey"}]}],"code":{"coding":[{"system":"http://loinc.org","code":"69858-9","display":"Because of a physical, mental, or emotional condition, do you have serious difficulty concentrating, remembering, or making decisions?"}]},"subject":{"reference":"Patient/healthelink-20240305-testcase3-MRN"},"effectiveDateTime":"03/05/94 13:08","issued":"03/05/94 13:08","valueCodeableConcept":{"coding":[{"system":"http://loinc.org","code":"LA33-6","display":"Yes"}]}}},{"fullUrl":"observation69861-3","resource":{"resourceType":"Observation","id":"observation69861-3","meta":{"lastUpdated":"03/05/94 13:08","profile":["http://hl7.org/fhir/us/sdoh-clinicalcare/StructureDefinition/SDOHCC-ObservationScreeningResponse"]},"status":"unknown","category":[{"coding":[{"system":"http://terminology.hl7.org/CodeSystem/observation-category","code":"social-history","display":"Social History"}]},{"coding":[{"system":"http://terminology.hl7.org/CodeSystem/observation-category","code":"survey","display":"Survey"}]}],"code":{"coding":[{"system":"http://loinc.org","code":"69861-3","display":"Because of a physical, mental, or emotional condition, do you have difficulty doing errands alone such as visiting a physician's office or shopping"}]},"subject":{"reference":"Patient/healthelink-20240305-testcase3-MRN"},"effectiveDateTime":"03/05/94 13:08","issued":"03/05/94 13:08","valueCodeableConcept":{"coding":[{"system":"http://loinc.org","code":"LA32-8","display":"No"}]}}},{"fullUrl":"observation71802-3","resource":{"resourceType":"Observation","id":"observation71802-3","meta":{"lastUpdated":"2023-12-07T16:08:01.000Z","profile":["http://hl7.org/fhir/us/sdoh-clinicalcare/StructureDefinition/SDOHCC-ObservationScreeningResponse"]},"status":"entered-in-error","category":[{"coding":[{"system":"http://terminology.hl7.org/CodeSystem/observation-category","code":"social-history","display":"Social History"}]},{"coding":[{"system":"http://terminology.hl7.org/CodeSystem/observation-category","code":"survey","display":"Survey"}]}],"code":{"coding":[{"system":"http://loinc.org","code":"71802-3","display":"What is your living situation today?"}]},"subject":{"reference":"Patient/healthelink-20240305-testcase1-MRN"},"effectiveDateTime":"2023-12-07T16:08:01.000Z","issued":"2023-12-07T16:08:01.000Z","valueCodeableConcept":{"coding":[{"system":"http://loinc.org","code":"LA31995-6","display":"I do not have a steady place to live (I am temporarily staying with others, in a hotel, in a shelter, living outside on the street, on a beach, in a car, abandoned building, bus or train station, or in a park)"}]}}},{"fullUrl":"observation96778-6","resource":{"resourceType":"Observation","id":"observation96778-6","meta":{"lastUpdated":"2023-12-07T16:08:01.000Z","profile":["http://hl7.org/fhir/us/sdoh-clinicalcare/StructureDefinition/SDOHCC-ObservationScreeningResponse"]},"status":"entered-in-error","category":[{"coding":[{"system":"http://terminology.hl7.org/CodeSystem/observation-category","code":"social-history","display":"Social History"}]},{"coding":[{"system":"http://terminology.hl7.org/CodeSystem/observation-category","code":"survey","display":"Survey"}]}],"code":{"coding":[{"system":"http://loinc.org","code":"96778-6","display":"Think about the place you live. Do you have problems with any of the following?"}]},"subject":{"reference":"Patient/healthelink-20240305-testcase1-MRN"},"effectiveDateTime":"2023-12-07T16:08:01.000Z","issued":"2023-12-07T16:08:01.000Z","valueCodeableConcept":{"coding":[{"system":"http://loinc.org","code":"LA32001-2","display":"Water leaks"}]}}},{"fullUrl":"observation88122-7","resource":{"resourceType":"Observation","id":"observation88122-7","meta":{"lastUpdated":"2023-12-07T16:08:01.000Z","profile":["http://hl7.org/fhir/us/sdoh-clinicalcare/StructureDefinition/SDOHCC-ObservationScreeningResponse"]},"status":"entered-in-errorgfdgfdg","category":[{"coding":[{"system":"http://terminology.hl7.org/CodeSystem/observation-category","code":"social-history","display":"Social History"}]},{"coding":[{"system":"http://terminology.hl7.org/CodeSystem/observation-category","code":"survey","display":"Survey"}]}],"code":{"coding":[{"system":"http://loinc.org","code":"88122-7","display":"Within the past 12 months, you worried that your food would run out before you got money to buy more."}]},"subject":{"reference":"Patient/healthelink-20240305-testcase1-MRN"},"effectiveDateTime":"2023-12-07T16:08:01.000Z","issued":"2023-12-07T16:08:01.000Z","valueCodeableConcept":{"coding":[{"system":"http://loinc.org","code":"LA6729-3","display":"Sometimes true"}]}}},{"fullUrl":"observation88123-5","resource":{"resourceType":"Observation","id":"observation88123-5","meta":{"lastUpdated":"2023-12-07T16:08:01.000Z","profile":["http://hl7.org/fhir/us/sdoh-clinicalcare/StructureDefinition/SDOHCC-ObservationScreeningResponse"]},"status":"entered-in-error","category":[{"coding":[{"system":"http://terminology.hl7.org/CodeSystem/observation-category","code":"social-history","display":"Social History"}]},{"coding":[{"system":"http://terminology.hl7.org/CodeSystem/observation-category","code":"survey","display":"Survey"}]}],"code":{"coding":[{"system":"LN","code":"88123-5","display":"Within the past 12 months, the food you bought just didn't last and you didn't have money to get more."}]},"subject":{"reference":"Patient/healthelink-20240305-testcase1-MRN"},"effectiveDateTime":"2023-12-07T16:08:01.000Z","issued":"2023-12-07T16:08:01.000Z","valueCodeableConcept":{"coding":[{"system":"http://loinc.org","code":"LA6729-3","display":"Sometimes true"}]}}},{"fullUrl":"observation93030-5","resource":{"resourceType":"Observation","id":"observation93030-5","meta":{"lastUpdated":"2023-12-07T16:08:01.000Z","profile":["http://hl7.org/fhir/us/sdoh-clinicalcare/StructureDefinition/SDOHCC-ObservationScreeningResponse"]},"status":"entered-in-error","category":[{"coding":[{"system":"http://terminology.hl7.org/CodeSystem/observation-category","code":"social-history","display":"Social History"}]},{"coding":[{"system":"http://terminology.hl7.org/CodeSystem/observation-category","code":"survey","display":"Survey"}]}],"code":{"coding":[{"system":"LOINC","code":"93030-5","display":"In the past 12 months, has lack of reliable transportation kept you from medical appointments, meetings, work or from getting things needed for daily living?"}]},"subject":{"reference":"Patient/healthelink-20240305-testcase1-MRN"},"effectiveDateTime":"2023-12-07T16:08:01.000Z","issued":"2023-12-07T16:08:01.000Z","valueCodeableConcept":{"coding":[{"system":"http://loinc.org","code":"LA33-6","display":"Yes"}]}}},{"fullUrl":"observation96779-4","resource":{"resourceType":"Observation","id":"observation96779-4","meta":{"lastUpdated":"2023-12-07T16:08:01.000Z","profile":["http://hl7.org/fhir/us/sdoh-clinicalcare/StructureDefinition/SDOHCC-ObservationScreeningResponse"]},"status":"entered-in-error","category":[{"coding":[{"system":"http://terminology.hl7.org/CodeSystem/observation-category","code":"social-history","display":"Social History"}]},{"coding":[{"system":"http://terminology.hl7.org/CodeSystem/observation-category","code":"survey","display":"Survey"}]}],"code":{"coding":[{"system":"http://loinc.org","code":"96779-4","display":"In the past 12 months has the electric, gas, oil, or water company threatened to shut off services in your home?"}]},"subject":{"reference":"Patient/healthelink-20240305-testcase1-MRN"},"effectiveDateTime":"2023-12-07T16:08:01.000Z","issued":"2023-12-07T16:08:01.000Z","valueCodeableConcept":{"coding":[{"system":"http://loinc.org","code":"LA32002-0","display":"Already shut off"}]}}},{"fullUrl":"observation95618-5","resource":{"resourceType":"Observation","id":"observation95618-5","meta":{"lastUpdated":"2023-12-07T16:08:01.000Z","profile":["http://hl7.org/fhir/us/sdoh-clinicalcare/StructureDefinition/SDOHCC-ObservationScreeningResponse"]},"status":"entered-in-error","category":[{"coding":[{"system":"http://terminology.hl7.org/CodeSystem/observation-category","code":"social-history","display":"Social History"}]},{"coding":[{"system":"http://terminology.hl7.org/CodeSystem/observation-category","code":"survey","display":"Survey"}]}],"code":{"coding":[{"system":"http://loinc.org","code":"95618-5","display":"How often does anyone, including family and friends, physically hurt you?"}]},"subject":{"reference":"Patient/healthelink-20240305-testcase1-MRN"},"effectiveDateTime":"2023-12-07T16:08:01.000Z","issued":"2023-12-07T16:08:01.000Z","valueCodeableConcept":{"coding":[{"system":"http://loinc.org","code":"LA10066-1","display":"Rarely"}]}}},{"fullUrl":"observation95617-7","resource":{"resourceType":"Observation","id":"observation95617-7","meta":{"lastUpdated":"2023-12-07T16:08:01.000Z","profile":["http://hl7.org/fhir/us/sdoh-clinicalcare/StructureDefinition/SDOHCC-ObservationScreeningResponse"]},"status":"entered-in-error","category":[{"coding":[{"system":"http://terminology.hl7.org/CodeSystem/observation-category","code":"social-history","display":"Social History"}]},{"coding":[{"system":"http://terminology.hl7.org/CodeSystem/observation-category","code":"survey","display":"Survey"}]}],"code":{"coding":[{"system":"http://loinc.org","code":"95617-7","display":"How often does anyone, including family and friends, insult or talk down to you?"}]},"subject":{"reference":"Patient/healthelink-20240305-testcase1-MRN"},"effectiveDateTime":"2023-12-07T16:08:01.000Z","issued":"2023-12-07T16:08:01.000Z","valueCodeableConcept":{"coding":[{"system":"http://loinc.org","code":"LA6482-9","display":"Frequently"}]}}},{"fullUrl":"observation95616-9","resource":{"resourceType":"Observation","id":"observation95616-9","meta":{"lastUpdated":"2023-12-07T16:08:01.000Z","profile":["http://hl7.org/fhir/us/sdoh-clinicalcare/StructureDefinition/SDOHCC-ObservationScreeningResponse"]},"status":"entered-in-error","category":[{"coding":[{"system":"http://terminology.hl7.org/CodeSystem/observation-category","code":"social-history","display":"Social History"}]},{"coding":[{"system":"http://terminology.hl7.org/CodeSystem/observation-category","code":"survey","display":"Survey"}]}],"code":{"coding":[{"system":"http://loinc.org","code":"95616-9","display":"How often does anyone, including family and friends, threaten you with harm?"}]},"subject":{"reference":"Patient/healthelink-20240305-testcase1-MRN"},"effectiveDateTime":"2023-12-07T16:08:01.000Z","issued":"2023-12-07T16:08:01.000Z","valueCodeableConcept":{"coding":[{"system":"http://loinc.org","code":"LA10066-1","display":"Rarely"}]}}},{"fullUrl":"observation95615-1","resource":{"resourceType":"Observation","id":"observation95615-1","meta":{"lastUpdated":"2023-12-07T16:08:01.000Z","profile":["http://hl7.org/fhir/us/sdoh-clinicalcare/StructureDefinition/SDOHCC-ObservationScreeningResponse"]},"status":"Entered-in-error","category":[{"coding":[{"system":"http://terminology.hl7.org/CodeSystem/observation-category","code":"social-history","display":"Social History"}]},{"coding":[{"system":"http://terminology.hl7.org/CodeSystem/observation-category","code":"survey","display":"Survey"}]}],"code":{"coding":[{"system":"http://loinc.org","code":"95615-1","display":"How often does anyone, including family and friends, scream or curse at you?"}]},"subject":{"reference":"Patient/healthelink-20240305-testcase1-MRN"},"effectiveDateTime":"2023-12-07T16:08:01.000Z","issued":"2023-12-07T16:08:01.000Z","valueCodeableConcept":{"coding":[{"system":"http://loinc.org","code":"LA16644-9","display":"Fairly often"}]}}},{"fullUrl":"observation95614-4","resource":{"resourceType":"Observation","id":"observation95614-4","meta":{"lastUpdated":"2023-12-07T16:08:01.000Z","profile":["http://hl7.org/fhir/us/sdoh-clinicalcare/StructureDefinition/SDOHCC-ObservationScreeningResponse"]},"status":"ENtered-in-error","category":[{"coding":[{"system":"http://terminology.hl7.org/CodeSystem/observation-category","code":"social-history","display":"Social History"}]},{"coding":[{"system":"http://terminology.hl7.org/CodeSystem/observation-category","code":"survey","display":"Survey"}]}],"code":{"coding":[{"system":"http://loinc.org","code":"95614-4","display":"Total Safety Score"}]},"subject":{"reference":"Patient/healthelink-20240305-testcase1-MRN"},"effectiveDateTime":"2023-12-07T16:08:01.000Z","issued":"2023-12-07T16:08:01.000Z","valueCodeableConcept":{"coding":[{"system":"http://loinc.org","code":null,"display":"13"}]}}},{"fullUrl":"observation76513-1","resource":{"resourceType":"Observation","id":"observation76513-1","meta":{"lastUpdated":"2023-12-07T16:08:01.000Z","profile":["http://hl7.org/fhir/us/sdoh-clinicalcare/StructureDefinition/SDOHCC-ObservationScreeningResponse"]},"status":"Entered-In-Error","category":[{"coding":[{"system":"http://terminology.hl7.org/CodeSystem/observation-category","code":"social-history","display":"Social History"}]},{"coding":[{"system":"http://terminology.hl7.org/CodeSystem/observation-category","code":"survey","display":"Survey"}]}],"code":{"coding":[{"system":"http://loinc.org","code":"76513-1","display":"How hard is it for you to pay for the very basics like food, housing, medical care, and heating? Would you say it is"}]},"subject":{"reference":"Patient/healthelink-20240305-testcase1-MRN"},"effectiveDateTime":"2023-12-07T16:08:01.000Z","issued":"2023-12-07T16:08:01.000Z","valueCodeableConcept":{"coding":[{"system":"http://loinc.org","code":"LA31980-8","display":"Not hard at all"}]}}},{"fullUrl":"observation96780-2","resource":{"resourceType":"Observation","id":"observation96780-2","meta":{"lastUpdated":"2023-12-07T16:08:01.000Z","profile":["http://hl7.org/fhir/us/sdoh-clinicalcare/StructureDefinition/SDOHCC-ObservationScreeningResponse"]},"status":"entered-in-error","category":[{"coding":[{"system":"http://terminology.hl7.org/CodeSystem/observation-category","code":"social-history","display":"Social History"}]},{"coding":[{"system":"http://terminology.hl7.org/CodeSystem/observation-category","code":"survey","display":"Survey"}]}],"code":{"coding":[{"system":"http://loinc.org","code":"96780-2","display":"Do you want help finding or keeping work or a job?"}]},"subject":{"reference":"Patient/healthelink-20240305-testcase1-MRN"},"effectiveDateTime":"2023-12-07T16:08:01.000Z","issued":"2023-12-07T16:08:01.000Z","valueCodeableConcept":{"coding":[{"system":"http://loinc.org","code":"LA31981-6","display":"Yes, help finding work"}]}}},{"fullUrl":"observation96781-0","resource":{"resourceType":"Observation","id":"observation96781-0","meta":{"lastUpdated":"2023-12-07T16:08:01.000Z","profile":["http://hl7.org/fhir/us/sdoh-clinicalcare/StructureDefinition/SDOHCC-ObservationScreeningResponse"]},"status":"entered-in-error","category":[{"coding":[{"system":"http://terminology.hl7.org/CodeSystem/observation-category","code":"social-history","display":"Social History"}]},{"coding":[{"system":"http://terminology.hl7.org/CodeSystem/observation-category","code":"survey","display":"Survey"}]}],"code":{"coding":[{"system":"http://loinc.org","code":"96781-0","display":"If for any reason you need help with day-to-day activities such as bathing, preparing meals, shopping, managing finances, etc., do you get the help you need?"}]},"subject":{"reference":"Patient/healthelink-20240305-testcase1-MRN"},"effectiveDateTime":"2023-12-07T16:08:01.000Z","issued":"2023-12-07T16:08:01.000Z","valueCodeableConcept":{"coding":[{"system":"http://loinc.org","code":"LA31977-4","display":"I get all the help I need"}]}}},{"fullUrl":"observation93159-2","resource":{"resourceType":"Observation","id":"observation93159-2","meta":{"lastUpdated":"2023-12-07T16:08:01.000Z","profile":["http://hl7.org/fhir/us/sdoh-clinicalcare/StructureDefinition/SDOHCC-ObservationScreeningResponse"]},"status":"entered-in-error","category":[{"coding":[{"system":"http://terminology.hl7.org/CodeSystem/observation-category","code":"social-history","display":"Social History"}]},{"coding":[{"system":"http://terminology.hl7.org/CodeSystem/observation-category","code":"survey","display":"Survey"}]}],"code":{"coding":[{"system":"http://loinc.org","code":"93159-2","display":"How often do you feel lonely or isolated from those around you?"}]},"subject":{"reference":"Patient/healthelink-20240305-testcase1-MRN"},"effectiveDateTime":"2023-12-07T16:08:01.000Z","issued":"2023-12-07T16:08:01.000Z","valueCodeableConcept":{"coding":[{"system":"http://loinc.org","code":"LA9933-8","display":"Always"}]}}},{"fullUrl":"observation97027-7","resource":{"resourceType":"Observation","id":"observation97027-7","meta":{"lastUpdated":"2023-12-07T16:08:01.000Z","profile":["http://hl7.org/fhir/us/sdoh-clinicalcare/StructureDefinition/SDOHCC-ObservationScreeningResponse"]},"status":"entered-in-error","category":[{"coding":[{"system":"http://terminology.hl7.org/CodeSystem/observation-category","code":"social-history","display":"Social History"}]},{"coding":[{"system":"http://terminology.hl7.org/CodeSystem/observation-category","code":"survey","display":"Survey"}]}],"code":{"coding":[{"system":"http://loinc.org","code":"97027-7","display":"Do you speak a language other than English at home?"}]},"subject":{"reference":"Patient/healthelink-20240305-testcase1-MRN"},"effectiveDateTime":"2023-12-07T16:08:01.000Z","issued":"2023-12-07T16:08:01.000Z","valueCodeableConcept":{"coding":[{"system":"http://loinc.org","code":"LA32-8","display":"No"}]}}},{"fullUrl":"observation96782-8","resource":{"resourceType":"Observation","id":"observation96782-8","meta":{"lastUpdated":"2023-12-07T16:08:01.000Z","profile":["http://hl7.org/fhir/us/sdoh-clinicalcare/StructureDefinition/SDOHCC-ObservationScreeningResponse"]},"status":"entered-in-error","category":[{"coding":[{"system":"http://terminology.hl7.org/CodeSystem/observation-category","code":"social-history","display":"Social History"}]},{"coding":[{"system":"http://terminology.hl7.org/CodeSystem/observation-category","code":"survey","display":"Survey"}]}],"code":{"coding":[{"system":"http://loinc.org","code":"96782-8","display":"Do you want help with school or training? For example, starting or completing job training or getting a high school diploma, GED or equivalent."}]},"subject":{"reference":"Patient/healthelink-20240305-testcase1-MRN"},"effectiveDateTime":"2023-12-07T16:08:01.000Z","issued":"2023-12-07T16:08:01.000Z","valueCodeableConcept":{"coding":[{"system":"http://loinc.org","code":"LA33-6","display":"Yes"}]}}},{"fullUrl":"observation89555-7","resource":{"resourceType":"Observation","id":"observation89555-7","meta":{"lastUpdated":"2023-12-07T16:08:01.000Z","profile":["http://hl7.org/fhir/us/sdoh-clinicalcare/StructureDefinition/SDOHCC-ObservationScreeningResponse"]},"status":"entered-in-error","category":[{"coding":[{"system":"http://terminology.hl7.org/CodeSystem/observation-category","code":"social-history","display":"Social History"}]},{"coding":[{"system":"http://terminology.hl7.org/CodeSystem/observation-category","code":"survey","display":"Survey"}]}],"code":{"coding":[{"system":"http://loinc.org","code":"89555-7","display":"In the last 30 days, other than the activities you did for work, on average, how many days per week did you engage in moderate exercise (like walking fast, running, jogging, dancing, swimming, biking, or other similar activities)"}]},"subject":{"reference":"Patient/healthelink-20240305-testcase1-MRN"},"effectiveDateTime":"2023-12-07T16:08:01.000Z","issued":"2023-12-07T16:08:01.000Z","valueCodeableConcept":{"coding":[{"system":"http://loinc.org","code":"LA6112-2","display":"1"}]}}},{"fullUrl":"observation68516-4","resource":{"resourceType":"Observation","id":"observation68516-4","meta":{"lastUpdated":"2023-12-07T16:08:01.000Z","profile":["http://hl7.org/fhir/us/sdoh-clinicalcare/StructureDefinition/SDOHCC-ObservationScreeningResponse"]},"status":"entered-in-error","category":[{"coding":[{"system":"http://terminology.hl7.org/CodeSystem/observation-category","code":"social-history","display":"Social History"}]},{"coding":[{"system":"http://terminology.hl7.org/CodeSystem/observation-category","code":"survey","display":"Survey"}]}],"code":{"coding":[{"system":"http://loinc.org","code":"68516-4","display":"On average, how many minutes did you usually spend exercising at this level on one of those days?"}]},"subject":{"reference":"Patient/healthelink-20240305-testcase1-MRN"},"effectiveDateTime":"2023-12-07T16:08:01.000Z","issued":"2023-12-07T16:08:01.000Z","valueCodeableConcept":{"coding":[{"system":"http://loinc.org","code":"LA32059-0","display":"120"}]}}},{"fullUrl":"observation","resource":{"resourceType":"Observation","id":"observation","meta":{"lastUpdated":"2023-12-07T16:08:01.000Z","profile":["http://hl7.org/fhir/us/sdoh-clinicalcare/StructureDefinition/SDOHCC-ObservationScreeningResponse"]},"status":"entered-in-error","category":[{"coding":[{"system":"http://terminology.hl7.org/CodeSystem/observation-category","code":"social-history","display":"Social History"}]},{"coding":[{"system":"http://terminology.hl7.org/CodeSystem/observation-category","code":"survey","display":"Survey"}]}],"code":{"coding":[{"system":null,"code":null,"display":"Calculated weekly physical activity"}]},"subject":{"reference":"Patient/healthelink-20240305-testcase1-MRN"},"effectiveDateTime":"2023-12-07T16:08:01.000Z","issued":"2023-12-07T16:08:01.000Z","valueCodeableConcept":{"coding":[{"system":"http://loinc.org","code":null,"display":"120"}]}}},{"fullUrl":"observation68517-2","resource":{"resourceType":"Observation","id":"observation68517-2","meta":{"lastUpdated":"2023-12-07T16:08:01.000Z","profile":["http://hl7.org/fhir/us/sdoh-clinicalcare/StructureDefinition/SDOHCC-ObservationScreeningResponse"]},"status":"entered-in-error","category":[{"coding":[{"system":"http://terminology.hl7.org/CodeSystem/observation-category","code":"social-history","display":"Social History"}]},{"coding":[{"system":"http://terminology.hl7.org/CodeSystem/observation-category","code":"survey","display":"Survey"}]}],"code":{"coding":[{"system":"http://loinc.org","code":"68517-2","display":"How many times in the past 12 months have you had 5 or more drinks in a day (males) or 4 or more drinks in a day (females)?"}]},"subject":{"reference":"Patient/healthelink-20240305-testcase1-MRN"},"effectiveDateTime":"2023-12-07T16:08:01.000Z","issued":"2023-12-07T16:08:01.000Z","valueCodeableConcept":{"coding":[{"system":"http://loinc.org","code":"LA6270-8","display":"Never"}]}}},{"fullUrl":"observation96842-0","resource":{"resourceType":"Observation","id":"observation96842-0","meta":{"lastUpdated":"2023-12-07T16:08:01.000Z","profile":["http://hl7.org/fhir/us/sdoh-clinicalcare/StructureDefinition/SDOHCC-ObservationScreeningResponse"]},"status":"entered-in-error","category":[{"coding":[{"system":"http://terminology.hl7.org/CodeSystem/observation-category","code":"social-history","display":"Social History"}]},{"coding":[{"system":"http://terminology.hl7.org/CodeSystem/observation-category","code":"survey","display":"Survey"}]}],"code":{"coding":[{"system":"http://loinc.org","code":"96842-0","display":"How many times in the past 12 months have you used tobacco products (like cigarettes, cigars, snuff, chew, electronic cigarettes)?"}]},"subject":{"reference":"Patient/healthelink-20240305-testcase1-MRN"},"effectiveDateTime":"2023-12-07T16:08:01.000Z","issued":"2023-12-07T16:08:01.000Z","valueCodeableConcept":{"coding":[{"system":"http://loinc.org","code":"LA26460-8","display":"Once or Twice"}]}}},{"fullUrl":"observation95530-2","resource":{"resourceType":"Observation","id":"observation95530-2","meta":{"lastUpdated":"2023-12-07T16:08:01.000Z","profile":["http://hl7.org/fhir/us/sdoh-clinicalcare/StructureDefinition/SDOHCC-ObservationScreeningResponse"]},"status":"entered-in-error","category":[{"coding":[{"system":"http://terminology.hl7.org/CodeSystem/observation-category","code":"social-history","display":"Social History"}]},{"coding":[{"system":"http://terminology.hl7.org/CodeSystem/observation-category","code":"survey","display":"Survey"}]}],"code":{"coding":[{"system":"http://loinc.org","code":"95530-2","display":"How many times in the past year have you used prescription drugs for non-medical reasons?"}]},"subject":{"reference":"Patient/healthelink-20240305-testcase1-MRN"},"effectiveDateTime":"2023-12-07T16:08:01.000Z","issued":"2023-12-07T16:08:01.000Z","valueCodeableConcept":{"coding":[{"system":"http://loinc.org","code":"LA26460-8","display":"Once or Twice"}]}}},{"fullUrl":"observation68524-8","resource":{"resourceType":"Observation","id":"observation68524-8","meta":{"lastUpdated":"2023-02-15T14:38:06Z","profile":["http://hl7.org/fhir/us/sdoh-clinicalcare/StructureDefinition/SDOHCC-ObservationScreeningResponse"]},"status":"entered-in-error","category":[{"coding":[{"system":"http://terminology.hl7.org/CodeSystem/observation-category","code":"social-history","display":"Social History"}]},{"coding":[{"system":"http://terminology.hl7.org/CodeSystem/observation-category","code":"survey","display":"Survey"}]}],"code":{"coding":[{"system":"http://loinc.org","code":"68524-8","display":"How many times in the past year have you used illegal drugs?"}]},"subject":{"reference":"Patient/healthelink-20240305-testcase1-MRN"},"effectiveDateTime":"2023-02-15T14:38:06Z","issued":"2023-02-15T14:38:06Z","valueCodeableConcept":{"coding":[{"system":"http://loinc.org","code":"LA18891-4","display":"Weekly"}]}}},{"fullUrl":"observation44250-9","resource":{"resourceType":"Observation","id":"observation44250-9","meta":{"lastUpdated":"2023-02-15T14:38:06Z","profile":["http://hl7.org/fhir/us/sdoh-clinicalcare/StructureDefinition/SDOHCC-ObservationScreeningResponse"]},"status":"entered-in-error","category":[{"coding":[{"system":"http://terminology.hl7.org/CodeSystem/observation-category","code":"social-history","display":"Social History"}]},{"coding":[{"system":"http://terminology.hl7.org/CodeSystem/observation-category","code":"survey","display":"Survey"}]}],"code":{"coding":[{"system":"http://loinc.org","code":"44250-9","display":"Little interest or pleasure in doing things?"}]},"subject":{"reference":"Patient/healthelink-20240305-testcase1-MRN"},"effectiveDateTime":"2023-02-15T14:38:06Z","issued":"2023-02-15T14:38:06Z","valueCodeableConcept":{"coding":[{"system":"http://loinc.org","code":"LA6568-5","display":"Not at all"}]}}},{"fullUrl":"observation44255-8","resource":{"resourceType":"Observation","id":"observation44255-8","meta":{"lastUpdated":"2023-02-15T14:38:06Z","profile":["http://hl7.org/fhir/us/sdoh-clinicalcare/StructureDefinition/SDOHCC-ObservationScreeningResponse"]},"status":"entered-in-error","category":[{"coding":[{"system":"http://terminology.hl7.org/CodeSystem/observation-category","code":"social-history","display":"Social History"}]},{"coding":[{"system":"http://terminology.hl7.org/CodeSystem/observation-category","code":"survey","display":"Survey"}]}],"code":{"coding":[{"system":"http://loinc.org","code":"44255-8","display":"Feeling down, depressed, or hopeless?"}]},"subject":{"reference":"Patient/healthelink-20240305-testcase1-MRN"},"effectiveDateTime":"2023-02-15T14:38:06Z","issued":"2023-02-15T14:38:06Z","valueCodeableConcept":{"coding":[{"system":"http://loinc.org","code":"LA6570-1","display":"More than half the days"}]}}},{"fullUrl":"observation","resource":{"resourceType":"Observation","id":"observation","meta":{"lastUpdated":"2023-02-15T14:38:06Z","profile":["http://hl7.org/fhir/us/sdoh-clinicalcare/StructureDefinition/SDOHCC-ObservationScreeningResponse"]},"status":"entered-in-error","category":[{"coding":[{"system":"http://terminology.hl7.org/CodeSystem/observation-category","code":"social-history","display":"Social History"}]},{"coding":[{"system":"http://terminology.hl7.org/CodeSystem/observation-category","code":"survey","display":"Survey"}]}],"code":{"coding":[{"system":"http://loinc.org","code":null,"display":"Calculated mental health score"}]},"subject":{"reference":"Patient/healthelink-20240305-testcase1-MRN"},"effectiveDateTime":"2023-02-15T14:38:06Z","issued":"2023-02-15T14:38:06Z","valueCodeableConcept":{"coding":[{"system":"http://loinc.org","code":null,"display":"2"}]}}},{"fullUrl":"observation93038-8","resource":{"resourceType":"Observation","id":"observation93038-8","meta":{"lastUpdated":"2023-02-15T14:38:06Z","profile":["http://hl7.org/fhir/us/sdoh-clinicalcare/StructureDefinition/SDOHCC-ObservationScreeningResponse"]},"status":"entered-in-error","category":[{"coding":[{"system":"http://terminology.hl7.org/CodeSystem/observation-category","code":"social-history","display":"Social History"}]},{"coding":[{"system":"http://terminology.hl7.org/CodeSystem/observation-category","code":"survey","display":"Survey"}]}],"code":{"coding":[{"system":"http://loinc.org","code":"93038-8","display":"Stress means a situation in which a person feels tense, restless, nervous, or anxious, or is unable to sleep at night because his or her mind is troubled all the time. Do you feel this kind of stress these days?"}]},"subject":{"reference":"Patient/healthelink-20240305-testcase1-MRN"},"effectiveDateTime":"2023-02-15T14:38:06Z","issued":"2023-02-15T14:38:06Z","valueCodeableConcept":{"coding":[{"system":"http://loinc.org","code":"LA6568-5","display":"Not at all"}]}}},{"fullUrl":"observation69858-9","resource":{"resourceType":"Observation","id":"observation69858-9","meta":{"lastUpdated":"2023-02-15T14:38:06Z","profile":["http://hl7.org/fhir/us/sdoh-clinicalcare/StructureDefinition/SDOHCC-ObservationScreeningResponse"]},"status":"entered-in-error","category":[{"coding":[{"system":"http://terminology.hl7.org/CodeSystem/observation-category","code":"social-history","display":"Social History"}]},{"coding":[{"system":"http://terminology.hl7.org/CodeSystem/observation-category","code":"survey","display":"Survey"}]}],"code":{"coding":[{"system":"http://loinc.org","code":"69858-9","display":"Because of a physical, mental, or emotional condition, do you have serious difficulty concentrating, remembering, or making decisions?"}]},"subject":{"reference":"Patient/healthelink-20240305-testcase1-MRN"},"effectiveDateTime":"2023-02-15T14:38:06Z","issued":"2023-02-15T14:38:06Z","valueCodeableConcept":{"coding":[{"system":"http://loinc.org","code":"LA32-8","display":"No"}]}}},{"fullUrl":"observation69861-3","resource":{"resourceType":"Observation","id":"observation69861-3","meta":{"lastUpdated":"2023-02-15T14:38:06Z","profile":["http://hl7.org/fhir/us/sdoh-clinicalcare/StructureDefinition/SDOHCC-ObservationScreeningResponse"]},"status":"entered-in-error","category":[{"coding":[{"system":"http://terminology.hl7.org/CodeSystem/observation-category","code":"social-history","display":"Social History"}]},{"coding":[{"system":"http://terminology.hl7.org/CodeSystem/observation-category","code":"survey","display":"Survey"}]}],"code":{"coding":[{"system":"http://loinc.org","code":"69861-3","display":"Because of a physical, mental, or emotional condition, do you have difficulty doing errands alone such as visiting a physician's office or shopping"}]},"subject":{"reference":"Patient/healthelink-20240305-testcase1-MRN"},"effectiveDateTime":"2023-02-15T14:38:06Z","issued":"2023-02-15T14:38:06Z","valueCodeableConcept":{"coding":[{"system":"http://loinc.org","code":"LA32-8","display":"No"}]}}},{"fullUrl":"observation69858-9","resource":{"resourceType":"Observation","id":"observation69858-9","meta":{"lastUpdated":"2023-02-15T14:38:06Z","profile":["http://hl7.org/fhir/us/sdoh-clinicalcare/StructureDefinition/SDOHCC-ObservationScreeningResponse"]},"status":"entered-in-error","category":[{"coding":[{"system":"http://terminology.hl7.org/CodeSystem/observation-category","code":"social-history","display":"Social History"}]},{"coding":[{"system":"http://terminology.hl7.org/CodeSystem/observation-category","code":"survey","display":"Survey"}]}],"code":{"coding":[{"system":"http://loinc.org","code":"69858-9","display":"Because of a physical, mental, or emotional condition, do you have serious difficulty concentrating, remembering, or making decisions?"}]},"subject":{"reference":"Patient/healthelink-20240306-testcase1-MRN"},"effectiveDateTime":"2023-02-15T14:38:06Z","issued":"2023-02-15T14:38:06Z","valueCodeableConcept":{"coding":[{"system":"http://loinc.org","code":"LA32-8","display":"No"}]}}},{"fullUrl":"observation69861-3","resource":{"resourceType":"Observation","id":"observation69861-3","meta":{"lastUpdated":"2023-02-15T14:38:06Z","profile":["http://hl7.org/fhir/us/sdoh-clinicalcare/StructureDefinition/SDOHCC-ObservationScreeningResponse"]},"status":"entered-in-error","category":[{"coding":[{"system":"http://terminology.hl7.org/CodeSystem/observation-category","code":"social-history","display":"Social History"}]},{"coding":[{"system":"http://terminology.hl7.org/CodeSystem/observation-category","code":"survey","display":"Survey"}]}],"code":{"coding":[{"system":"http://loinc.org","code":"69861-3","display":"Because of a physical, mental, or emotional condition, do you have difficulty doing errands alone such as visiting a physician's office or shopping"}]},"subject":{"reference":"Patient/healthelink-20240307-testcase1-MRN"},"effectiveDateTime":"2023-02-15T14:38:06Z","issued":"2023-02-15T14:38:06Z","valueCodeableConcept":{"coding":[{"system":"http://loinc.org","code":"LA32-8","display":"No"}]}}},{"fullUrl":"CUMC-healthelink-20240305-testcase1-MRN","resource":{"resourceType":"Patient","id":"CUMC-healthelink-20240305-testcase1-MRN","meta":{"lastUpdated":"2023-12-07T16:08:01.000Z","profile":["http://shinny.org/StructureDefinition/shinny-patient"]},"language":"krc","extension":[{"extension":[{"url":"ombCategory","valueCoding":{"system":"urn:oid:2.16.840.1.113883.6.238","code":"1002-5","display":"Black or African American"}}],"url":"http://hl7.org/fhir/us/core/StructureDefinition/us-core-race"},{"extension":[{"url":"ombCategory","valueCoding":{"system":"urn:oid:2.16.840.1.113883.6.238","code":"2135-2","display":"Not Hispanic or Latino"}}],"url":"http://hl7.org/fhir/us/core/StructureDefinition/us-core-ethnicity"},{"extension":[{"url":"ombCategory","valueCoding":{"system":"http://terminology.hl7.org/CodeSystem/v3-AdministrativeGender","code":"M","display":"Female"}}],"url":"http://hl7.org/fhir/us/core/StructureDefinition/us-core-birthsex"},{"extension":[{"url":"ombCategory","valueCoding":{"system":"http://snomed.info/sct","code":"UNK","display":"Other"}}],"url":"http://shinny.org/StructureDefinition/shinny-sexual-orientation"}],"identifier":[{"type":{"coding":[{"system":"http://terminology.hl7.org/CodeSystem/v2-0203","code":"MR"}],"text":"Medical Record Number"},"system":"CUMC","value":"healthelink-20240305-testcase1-MRN","assigner":{"reference":"Organization/columbia-university-irving-medical-center-hospital-cumc"}},{"type":{"coding":[{"system":"http://terminology.hl7.org/CodeSystem/v2-0203","code":"MA"}]},"system":"http://www.medicaid.gov/","value":"DF21345T","assigner":{"reference":"Organization/2.16.840.1.113883.3.249"}},{"type":{"coding":[{"system":"http://terminology.hl7.org/CodeSystem/v2-0203","code":"PN"}]},"system":"http://www.acme.com/identifiers/patient","value":"healthelinkTLBOUSVXQV"}],"name":[{"text":"Daniel David Taylor","family":"Taylor","given":["Daniel","David"]}],"gender":"Other","birthDate":"1992-08-01","address":[{"text":" ","line":[null,null],"city":"Ithaca","state":"NY","postalCode":"14850"}],"communication":[{"language":{"coding":["code","krc"]},"preferred":true}]}},{"fullUrl":"CUMC-healthelink-20240306-testcase1-MRN","resource":{"resourceType":"Patient","id":"CUMC-healthelink-20240306-testcase1-MRN","meta":{"lastUpdated":"2023-12-07T16:08:01.000Z","profile":["http://shinny.org/StructureDefinition/shinny-patient"]},"language":"krc","extension":[{"extension":[{"url":"ombCategory","valueCoding":{"system":null,"code":"1002-5","display":null}}],"url":"http://hl7.org/fhir/us/core/StructureDefinition/us-core-race"},{"extension":[{"url":"ombCategory","valueCoding":{"system":"urn:oid:2.16.840.1.113883.6.238","code":"2135-2","display":null}}],"url":"http://hl7.org/fhir/us/core/StructureDefinition/us-core-ethnicity"},{"extension":[{"url":"ombCategory","valueCoding":{"system":"http://terminology.hl7.org/CodeSystem/v3-AdministrativeGender","code":"M","display":null}}],"url":"http://hl7.org/fhir/us/core/StructureDefinition/us-core-birthsex"},{"extension":[{"url":"ombCategory","valueCoding":{"system":"http://snomed.info/sct","code":"UNK","display":null}}],"url":"http://shinny.org/StructureDefinition/shinny-sexual-orientation"}],"identifier":[{"type":{"coding":[{"system":"http://terminology.hl7.org/CodeSystem/v2-0203","code":"MR"}],"text":"Medical Record Number"},"system":"CUMC","value":"healthelink-20240306-testcase1-MRN","assigner":{"reference":"Organization/columbia-university-irving-medical-center-hospital-cumc"}},{"type":{"coding":[{"system":"http://terminology.hl7.org/CodeSystem/v2-0203","code":"MA"}]},"system":"http://www.medicaid.gov/","value":"DF21345T","assigner":{"reference":"Organization/2.16.840.1.113883.3.249"}},{"type":{"coding":[{"system":"http://terminology.hl7.org/CodeSystem/v2-0203","code":"PN"}]},"system":"http://www.acme.com/identifiers/patient","value":"healthelinkTLBOUSVXXX"}],"name":[{"text":"Dany D Taylor","family":"Taylor","given":["Dany","D"]}],"gender":null,"birthDate":"1992-08-01","address":[{"text":" ","line":[null,null],"city":"Ithaca","state":"NY","postalCode":"14850"}],"communication":[{"language":{"coding":["code","krc"]},"preferred":true}]}},{"fullUrl":"CUMC-healthelink-20240307-testcase1-MRN","resource":{"resourceType":"Patient","id":"CUMC-healthelink-20240307-testcase1-MRN","meta":{"lastUpdated":"2023-12-07T16:08:01.000Z","profile":["http://shinny.org/StructureDefinition/shinny-patient"]},"language":"krc","extension":[{"extension":[{"url":"ombCategory","valueCoding":{"system":null,"code":null,"display":"Black or African American"}}],"url":"http://hl7.org/fhir/us/core/StructureDefinition/us-core-race"},{"extension":[{"url":"ombCategory","valueCoding":{"system":"urn:oid:2.16.840.1.113883.6.238","code":null,"display":"Castillian"}}],"url":"http://hl7.org/fhir/us/core/StructureDefinition/us-core-ethnicity"},{"extension":[{"url":"ombCategory","valueCoding":{"system":"http://terminology.hl7.org/CodeSystem/v3-AdministrativeGender","code":null,"display":"Male"}}],"url":"http://hl7.org/fhir/us/core/StructureDefinition/us-core-birthsex"},{"extension":[{"url":"ombCategory","valueCoding":{"system":"http://snomed.info/sct","code":null,"display":"Homosexual"}}],"url":"http://shinny.org/StructureDefinition/shinny-sexual-orientation"}],"identifier":[{"type":{"coding":[{"system":"http://terminology.hl7.org/CodeSystem/v2-0203","code":"MR"}],"text":"Medical Record Number"},"system":"CUMC","value":"healthelink-20240307-testcase1-MRN","assigner":{"reference":"Organization/columbia-university-irving-medical-center-hospital-cumc"}},{"type":{"coding":[{"system":"http://terminology.hl7.org/CodeSystem/v2-0203","code":"MA"}]},"system":"http://www.medicaid.gov/","value":"DF21345T","assigner":{"reference":"Organization/2.16.840.1.113883.3.249"}},{"type":{"coding":[{"system":"http://terminology.hl7.org/CodeSystem/v2-0203","code":"PN"}]},"system":"http://www.acme.com/identifiers/patient","value":"healthelinkTLBOUSVYYY"}],"name":[{"text":"Dany D Taylor","family":"Taylor","given":["Dany","D"]}],"gender":"Unknown","birthDate":"1992-08-01","address":[{"text":" ","line":[null,null],"city":"Ithaca","state":"NY","postalCode":"14850"}],"communication":[{"language":{"coding":["code","krc"]},"preferred":true}]}}]}