{"resourceType":"Bundle","id":"fd1dd7e1-e295-11ee-b2c4-1b53d2629fa2","type":"transaction","entry":[{"fullUrl":"albany-medical-center-hospital-amc","resource":{"resourceType":"Organization","id":"albany-medical-center-hospital-amc","meta":{"lastUpdated":"2023-02-02T13:40:12.000Z","profile":["http://shinny.org/StructureDefinition/shin-ny-organization"]},"identifier":[{"system":"AMC","value":"albany-medical-center-hospital-amc"}],"active":true,"type":[{"coding":[{"system":"http://terminology.hl7.org/CodeSystem/organization-type","code":"Hospital","display":"Hospital"}]}],"name":"Albany Medical Center","address":[{"text":"43 New Scotland Ave ","city":"Albany","state":"New York","postalCode":"12208"}]}},{"fullUrl":"observation71802-3","resource":{"resourceType":"Observation","id":"observation71802-3","status":"final","code":{"coding":[{"system":"http://loinc.org","code":"71802-3"}]},"subject":{"reference":"Patient/healthelink-20240305-testcase3-MRN"},"effectiveDateTime":"2021-02-02T13:40:12.000Z","valueString":"I have a place to live today, but I am worried about losing it in the future","component":[{"code":{"coding":[{"system":"http://loinc.org","code":"71802-3"}]},"valueString":"What is your living situation today?"}]}},{"fullUrl":"observation96778-6","resource":{"resourceType":"Observation","id":"observation96778-6","status":"final","code":{"coding":[{"system":"http://loinc.org","code":"96778-6"}]},"subject":{"reference":"Patient/healthelink-20240305-testcase3-MRN"},"effectiveDateTime":"2023-02-02T13:40:06Z","valueString":"Lead paint or pipes","component":[{"code":{"coding":[{"system":"http://loinc.org","code":"96778-6"}]},"valueString":"Think about the place you live. Do you have problems with any of the following?"}]}},{"fullUrl":"observation88122-7","resource":{"resourceType":"Observation","id":"observation88122-7","status":"final","code":{"coding":[{"system":"http://loinc.org","code":"88122-7"}]},"subject":{"reference":"Patient/healthelink-20240305-testcase3-MRN"},"effectiveDateTime":"2023-02-02T13:40:12.000Z","valueString":"Sometimes true","component":[{"code":{"coding":[{"system":"http://loinc.org","code":"88122-7"}]},"valueString":"Within the past 12 months, you worried that your food would run out before you got money to buy more."}]}},{"fullUrl":"observation88123-5","resource":{"resourceType":"Observation","id":"observation88123-5","status":"final","code":{"coding":[{"system":"http://loinc.org","code":"88123-5"}]},"subject":{"reference":"Patient/healthelink-20240305-testcase3-MRN"},"effectiveDateTime":"2023-02-02T13:40:12.000Z","valueString":"Sometimes true","component":[{"code":{"coding":[{"system":"http://loinc.org","code":"88123-5"}]},"valueString":"Within the past 12 months, the food you bought just didn't last and you didn't have money to get more."}]}},{"fullUrl":"observation93030-5","resource":{"resourceType":"Observation","id":"observation93030-5","status":"final","code":{"coding":[{"system":"http://loinc.org","code":"93030-5"}]},"subject":{"reference":"Patient/healthelink-20240305-testcase3-MRN"},"effectiveDateTime":"2023-02-02T13:40:12.000Z","valueString":"Yes","component":[{"code":{"coding":[{"system":"http://loinc.org","code":"93030-5"}]},"valueString":"In the past 12 months, has lack of reliable transportation kept you from medical appointments, meetings, work or from getting things needed for daily living?"}]}},{"fullUrl":"observation96779-4","resource":{"resourceType":"Observation","id":"observation96779-4","status":"final","code":{"coding":[{"system":"http://loinc.org","code":"96779-4"}]},"subject":{"reference":"Patient/healthelink-20240305-testcase3-MRN"},"effectiveDateTime":"2023-02-02T13:40:12.000Z","valueString":"Already shut off","component":[{"code":{"coding":[{"system":"http://loinc.org","code":"96779-4"}]},"valueString":"In the past 12 months has the electric, gas, oil, or water company threatened to shut off services in your home?"}]}},{"fullUrl":"observation95618-5","resource":{"resourceType":"Observation","id":"observation95618-5","status":"final","code":{"coding":[{"system":"http://loinc.org","code":"95618-5"}]},"subject":{"reference":"Patient/healthelink-20240305-testcase3-MRN"},"effectiveDateTime":"2023-02-02","valueString":"Rarely","component":[{"code":{"coding":[{"system":"http://loinc.org","code":"95618-5"}]},"valueString":"How often does anyone, including family and friends, physically hurt you?"}]}},{"fullUrl":"observation95617-7","resource":{"resourceType":"Observation","id":"observation95617-7","status":"final","code":{"coding":[{"system":"http://loinc.org","code":"95617-7"}]},"subject":{"reference":"Patient/healthelink-20240305-testcase3-MRN"},"effectiveDateTime":"2023-02-02T13:40:12.000Z","valueString":"Never","component":[{"code":{"coding":[{"system":"http://loinc.org","code":"95617-7"}]},"valueString":"How often does anyone, including family and friends, insult or talk down to you?"}]}},{"fullUrl":"observation95616-9","resource":{"resourceType":"Observation","id":"observation95616-9","status":"final","code":{"coding":[{"system":"http://loinc.org","code":"95616-9"}]},"subject":{"reference":"Patient/healthelink-20240305-testcase3-MRN"},"effectiveDateTime":"2023-02-02T13:40:12.000Z","valueString":"Fairly often","component":[{"code":{"coding":[{"system":"http://loinc.org","code":"95616-9"}]},"valueString":"How often does anyone, including family and friends, threaten you with harm?"}]}},{"fullUrl":"observation95615-1","resource":{"resourceType":"Observation","id":"observation95615-1","status":"final","code":{"coding":[{"system":"http://loinc.org","code":"95615-1"}]},"subject":{"reference":"Patient/healthelink-20240305-testcase3-MRN"},"effectiveDateTime":"2023-02-02T13:40:12.000Z","valueString":"Sometimes","component":[{"code":{"coding":[{"system":"http://loinc.org","code":"95615-1"}]},"valueString":"How often does anyone, including family and friends, scream or curse at you?"}]}},{"fullUrl":"observation95614-4","resource":{"resourceType":"Observation","id":"observation95614-4","status":"final","code":{"coding":[{"system":"http://loinc.org","code":"95614-4"}]},"subject":{"reference":"Patient/healthelink-20240305-testcase3-MRN"},"effectiveDateTime":"2023-02-02T13:40:12.000Z","valueString":"10","component":[{"code":{"coding":[{"system":"http://loinc.org","code":"95614-4"}]},"valueString":"Total Safety Score"}]}},{"fullUrl":"observation76513-1","resource":{"resourceType":"Observation","id":"observation76513-1","status":"final","code":{"coding":[{"system":"http://loinc.org","code":"76513-1"}]},"subject":{"reference":"Patient/healthelink-20240305-testcase3-MRN"},"effectiveDateTime":"03/05/94 13:08","valueString":"Very hard","component":[{"code":{"coding":[{"system":"http://loinc.org","code":"76513-1"}]},"valueString":"How hard is it for you to pay for the very basics like food, housing, medical care, and heating? Would you say it is"}]}},{"fullUrl":"observation96780-2","resource":{"resourceType":"Observation","id":"observation96780-2","status":"final","code":{"coding":[{"system":"http://loinc.org","code":"96780-2"}]},"subject":{"reference":"Patient/healthelink-20240305-testcase3-MRN"},"effectiveDateTime":"03/05/94 13:08","valueString":"I do not need or want help","component":[{"code":{"coding":[{"system":"http://loinc.org","code":"96780-2"}]},"valueString":"Do you want help finding or keeping work or a job?"}]}},{"fullUrl":"observation96781-0","resource":{"resourceType":"Observation","id":"observation96781-0","status":"final","code":{"coding":[{"system":"http://loinc.org","code":"96781-0"}]},"subject":{"reference":"Patient/healthelink-20240305-testcase3-MRN"},"effectiveDateTime":"03/05/94 13:08","valueString":"I need a lot more help","component":[{"code":{"coding":[{"system":"http://loinc.org","code":"96781-0"}]},"valueString":"If for any reason you need help with day-to-day activities such as bathing, preparing meals, shopping, managing finances, etc., do you get the help you need?"}]}},{"fullUrl":"observation93159-2","resource":{"resourceType":"Observation","id":"observation93159-2","status":"final","code":{"coding":[{"system":"http://loinc.org","code":"93159-2"}]},"subject":{"reference":"Patient/healthelink-20240305-testcase3-MRN"},"effectiveDateTime":"03/05/94 13:08","valueString":"Often","component":[{"code":{"coding":[{"system":"http://loinc.org","code":"93159-2"}]},"valueString":"How often do you feel lonely or isolated from those around you?"}]}},{"fullUrl":"observation97027-7","resource":{"resourceType":"Observation","id":"observation97027-7","status":"final","code":{"coding":[{"system":"http://loinc.org","code":"97027-7"}]},"subject":{"reference":"Patient/healthelink-20240305-testcase3-MRN"},"effectiveDateTime":"03/05/94 13:08","valueString":"No","component":[{"code":{"coding":[{"system":"http://loinc.org","code":"97027-7"}]},"valueString":"Do you speak a language other than English at home?"}]}},{"fullUrl":"observation96782-8","resource":{"resourceType":"Observation","id":"observation96782-8","status":"final","code":{"coding":[{"system":"http://loinc.org","code":"96782-8"}]},"subject":{"reference":"Patient/healthelink-20240305-testcase3-MRN"},"effectiveDateTime":"03/05/94 13:08","valueString":"Yes","component":[{"code":{"coding":[{"system":"http://loinc.org","code":"96782-8"}]},"valueString":"Do you want help with school or training? For example, starting or completing job training or getting a high school diploma, GED or equivalent."}]}},{"fullUrl":"observation89555-7","resource":{"resourceType":"Observation","id":"observation89555-7","status":"final","code":{"coding":[{"system":"http://loinc.org","code":"89555-7"}]},"subject":{"reference":"Patient/healthelink-20240305-testcase3-MRN"},"effectiveDateTime":"03/05/94 13:08","valueString":"2","component":[{"code":{"coding":[{"system":"http://loinc.org","code":"89555-7"}]},"valueString":"In the last 30 days, other than the activities you did for work, on average, how many days per week did you engage in moderate exercise (like walking fast, running, jogging, dancing, swimming, biking, or other similar activities)"}]}},{"fullUrl":"observation68516-4","resource":{"resourceType":"Observation","id":"observation68516-4","status":"final","code":{"coding":[{"system":"http://loinc.org","code":"68516-4"}]},"subject":{"reference":"Patient/healthelink-20240305-testcase3-MRN"},"effectiveDateTime":"03/05/94 13:08","valueString":"60","component":[{"code":{"coding":[{"system":"http://loinc.org","code":"68516-4"}]},"valueString":"On average, how many minutes did you usually spend exercising at this level on one of those days?"}]}},{"fullUrl":"observation","resource":{"resourceType":"Observation","id":"observation","status":"final","code":{"coding":[{"system":"http://loinc.org","code":null}]},"subject":{"reference":"Patient/healthelink-20240305-testcase3-MRN"},"effectiveDateTime":"03/05/94 13:08","valueString":"120","component":[{"code":{"coding":[{"system":"http://loinc.org","code":null}]},"valueString":"Calculated weekly physical activity"}]}},{"fullUrl":"observation68517-2","resource":{"resourceType":"Observation","id":"observation68517-2","status":"final","code":{"coding":[{"system":"http://loinc.org","code":"68517-2"}]},"subject":{"reference":"Patient/healthelink-20240305-testcase3-MRN"},"effectiveDateTime":"03/05/94 13:08","valueString":"Never","component":[{"code":{"coding":[{"system":"http://loinc.org","code":"68517-2"}]},"valueString":"How many times in the past 12 months have you had 5 or more drinks in a day (males) or 4 or more drinks in a day (females)?"}]}},{"fullUrl":"observation96842-0","resource":{"resourceType":"Observation","id":"observation96842-0","status":"final","code":{"coding":[{"system":"http://loinc.org","code":"96842-0"}]},"subject":{"reference":"Patient/healthelink-20240305-testcase3-MRN"},"effectiveDateTime":"03/05/94 13:08","valueString":"Weekly","component":[{"code":{"coding":[{"system":"http://loinc.org","code":"96842-0"}]},"valueString":"How many times in the past 12 months have you used tobacco products (like cigarettes, cigars, snuff, chew, electronic cigarettes)?"}]}},{"fullUrl":"observation95530-2","resource":{"resourceType":"Observation","id":"observation95530-2","status":"final","code":{"coding":[{"system":"http://loinc.org","code":"95530-2"}]},"subject":{"reference":"Patient/healthelink-20240305-testcase3-MRN"},"effectiveDateTime":"03/05/94 13:08","valueString":"Once or Twice","component":[{"code":{"coding":[{"system":"http://loinc.org","code":"95530-2"}]},"valueString":"How many times in the past year have you used prescription drugs for non-medical reasons?"}]}},{"fullUrl":"observation68524-8","resource":{"resourceType":"Observation","id":"observation68524-8","status":"final","code":{"coding":[{"system":"http://loinc.org","code":"68524-8"}]},"subject":{"reference":"Patient/healthelink-20240305-testcase3-MRN"},"effectiveDateTime":"03/05/94 13:08","valueString":"Never","component":[{"code":{"coding":[{"system":"http://loinc.org","code":"68524-8"}]},"valueString":"How many times in the past year have you used illegal drugs?"}]}},{"fullUrl":"observation44250-9","resource":{"resourceType":"Observation","id":"observation44250-9","status":"final","code":{"coding":[{"system":"http://loinc.org","code":"44250-9"}]},"subject":{"reference":"Patient/healthelink-20240305-testcase3-MRN"},"effectiveDateTime":"03/05/94 13:08","valueString":"Nearly every day","component":[{"code":{"coding":[{"system":"http://loinc.org","code":"44250-9"}]},"valueString":"Little interest or pleasure in doing things?"}]}},{"fullUrl":"observation44255-8","resource":{"resourceType":"Observation","id":"observation44255-8","status":"final","code":{"coding":[{"system":"http://loinc.org","code":"44255-8"}]},"subject":{"reference":"Patient/healthelink-20240305-testcase3-MRN"},"effectiveDateTime":"03/05/94 13:08","valueString":"Several days","component":[{"code":{"coding":[{"system":"http://loinc.org","code":"44255-8"}]},"valueString":"Feeling down, depressed, or hopeless?"}]}},{"fullUrl":"observation","resource":{"resourceType":"Observation","id":"observation","status":"final","code":{"coding":[{"system":"http://loinc.org","code":null}]},"subject":{"reference":"Patient/healthelink-20240305-testcase3-MRN"},"effectiveDateTime":"03/05/94 13:08","valueString":"4","component":[{"code":{"coding":[{"system":"http://loinc.org","code":null}]},"valueString":"Calculated mental health score"}]}},{"fullUrl":"observation93038-8","resource":{"resourceType":"Observation","id":"observation93038-8","status":"final","code":{"coding":[{"system":"http://loinc.org","code":"93038-8"}]},"subject":{"reference":"Patient/healthelink-20240305-testcase3-MRN"},"effectiveDateTime":"03/05/94 13:08","valueString":"Quite a bit","component":[{"code":{"coding":[{"system":"http://loinc.org","code":"93038-8"}]},"valueString":"Stress means a situation in which a person feels tense, restless, nervous, or anxious, or is unable to sleep at night because his or her mind is troubled all the time. Do you feel this kind of stress these days?"}]}},{"fullUrl":"observation69858-9","resource":{"resourceType":"Observation","id":"observation69858-9","status":"final","code":{"coding":[{"system":"http://loinc.org","code":"69858-9"}]},"subject":{"reference":"Patient/healthelink-20240305-testcase3-MRN"},"effectiveDateTime":"03/05/94 13:08","valueString":"Yes","component":[{"code":{"coding":[{"system":"http://loinc.org","code":"69858-9"}]},"valueString":"Because of a physical, mental, or emotional condition, do you have serious difficulty concentrating, remembering, or making decisions?"}]}},{"fullUrl":"observation69861-3","resource":{"resourceType":"Observation","id":"observation69861-3","status":"final","code":{"coding":[{"system":"http://loinc.org","code":"69861-3"}]},"subject":{"reference":"Patient/healthelink-20240305-testcase3-MRN"},"effectiveDateTime":"03/05/94 13:08","valueString":"No","component":[{"code":{"coding":[{"system":"http://loinc.org","code":"69861-3"}]},"valueString":"Because of a physical, mental, or emotional condition, do you have difficulty doing errands alone such as visiting a physician's office or shopping"}]}},{"resource":{"resourceType":"Encounter","id":"fd1dd7e0-e295-11ee-b2c4-1b53d2629fa2","meta":{"lastUpdated":"2023-02-02T13:40:12.000Z","profile":["http://shinny.org/StructureDefinition/shin-ny-encounter"]},"status":"Entered in Error","class":[{"coding":[{"system":"http://terminology.hl7.org/CodeSystem/v3-ActCode","code":null}]}],"type":[{"coding":[{"system":"http://snomed.info/sct","code":"32166003"}]}],"subject":{"reference":"Patient/AMC-healthelink-20240305-testcase3-MRN"}}},{"resource":{"resourceType":"Encounter","id":"fd1dd7e0-e295-11ee-b2c4-1b53d2629fa2","meta":{"lastUpdated":"03/05/94 13:08","profile":["http://shinny.org/StructureDefinition/shin-ny-encounter"]},"status":"Entered in Error","class":[{"coding":[{"system":"http://terminology.hl7.org/CodeSystem/v3-ActCode","code":"ACUTE"}]}],"type":[{"coding":[{"system":"http://snomed.info/sct","code":"32166003"}]}],"subject":{"reference":"Patient/AMC-healthelink-20240305-testcase3-MRN"}}},{"resource":{"resourceType":"Encounter","id":"fd1dd7e0-e295-11ee-b2c4-1b53d2629fa2","meta":{"lastUpdated":"03/05/94 13:08","profile":["http://shinny.org/StructureDefinition/shin-ny-encounter"]},"status":"Entered in Error","class":[{"coding":[{"system":"http://terminology.hl7.org/CodeSystem/v3-ActCode","code":"ACUTE"}]}],"type":[{"coding":[{"system":"http://snomed.info/sct","code":null}]}],"subject":{"reference":"Patient/AMC-healthelink-20240305-testcase3-MRN"}}},{"resource":{"resourceType":"Encounter","id":"fd1dd7e0-e295-11ee-b2c4-1b53d2629fa2","meta":{"lastUpdated":"2023-02-02T13:40:12.000Z","profile":["http://shinny.org/StructureDefinition/shin-ny-encounter"]},"status":"Entered in Error","class":[{"coding":[{"system":"http://terminology.hl7.org/CodeSystem/v3-ActCode","code":"ACUTE"}]}],"type":[{"coding":[{"system":"http://snomed.info/sct","code":"32166003"}]}],"subject":{"reference":"Patient/AMC-healthelink-20240305-testcase3-MRN"}}},{"resource":{"resourceType":"Encounter","id":"fd1dd7e0-e295-11ee-b2c4-1b53d2629fa2","meta":{"lastUpdated":"2021-02-02T13:40:12.000Z","profile":["http://shinny.org/StructureDefinition/shin-ny-encounter"]},"status":"Entered in Error","class":[{"coding":[{"system":"http://terminology.hl7.org/CodeSystem/v3-ActCode","code":"EMER"}]}],"type":[{"coding":[{"system":"http://snomed.info/sct","code":"32166003"}]}],"subject":{"reference":"Patient/AMC-healthelink-20240305-testcase3-MRN"}}},{"resource":{"resourceType":"Encounter","id":"fd1dd7e0-e295-11ee-b2c4-1b53d2629fa2","meta":{"lastUpdated":"2023-02-02T13:40:12.000Z","profile":["http://shinny.org/StructureDefinition/shin-ny-encounter"]},"status":"Entered in Error","class":[{"coding":[{"system":"http://terminology.hl7.org/CodeSystem/v3-ActCode","code":"IMP"}]}],"type":[{"coding":[{"system":"http://snomed.info/sct","code":"32166003"}]}],"subject":{"reference":"Patient/AMC-healthelink-20240305-testcase3-MRN"}}},{"resource":{"resourceType":"Encounter","id":"fd1dd7e0-e295-11ee-b2c4-1b53d2629fa2","meta":{"lastUpdated":"2023-02-02T13:40:12.000Z","profile":["http://shinny.org/StructureDefinition/shin-ny-encounter"]},"status":"Unknown","class":[{"coding":[{"system":"http://terminology.hl7.org/CodeSystem/v3-ActCode","code":"ACUTE"}]}],"type":[{"coding":[{"system":"http://snomed.info/sct","code":"32166003"}]}],"subject":{"reference":"Patient/AMC-healthelink-20240305-testcase3-MRN"}}},{"resource":{"resourceType":"Encounter","id":"fd1dd7e0-e295-11ee-b2c4-1b53d2629fa2","meta":{"lastUpdated":"2023-02-02T13:40:06Z","profile":["http://shinny.org/StructureDefinition/shin-ny-encounter"]},"status":"Entered in Error","class":[{"coding":[{"system":"http://terminology.hl7.org/CodeSystem/v3-ActCode","code":"ACUTE"}]}],"type":[{"coding":[{"system":"http://snomed.info/sct","code":"32166003"}]}],"subject":{"reference":"Patient/AMC-healthelink-20240305-testcase3-MRN"}}},{"resource":{"resourceType":"Encounter","id":"fd1dd7e0-e295-11ee-b2c4-1b53d2629fa2","meta":{"lastUpdated":"2023-02-02","profile":["http://shinny.org/StructureDefinition/shin-ny-encounter"]},"status":"Entered in Error","class":[{"coding":[{"system":"http://terminology.hl7.org/CodeSystem/v3-ActCode","code":"ACUTE"}]}],"type":[{"coding":[{"system":"http://snomed.info/sct","code":"32166003"}]}],"subject":{"reference":"Patient/AMC-healthelink-20240305-testcase3-MRN"}}},{"resource":{"resourceType":"Encounter","id":"fd1dd7e0-e295-11ee-b2c4-1b53d2629fa2","meta":{"lastUpdated":"2023-02-02T13:40:12.000Z","profile":["http://shinny.org/StructureDefinition/shin-ny-encounter"]},"status":null,"class":[{"coding":[{"system":"http://terminology.hl7.org/CodeSystem/v3-ActCode","code":"ACUTE"}]}],"type":[{"coding":[{"system":"http://snomed.info/sct","code":"32166003"}]}],"subject":{"reference":"Patient/AMC-healthelink-20240305-testcase3-MRN"}}},{"resource":{"resourceType":"Encounter","id":"fd1dd7e0-e295-11ee-b2c4-1b53d2629fa2","meta":{"lastUpdated":"03/05/94 13:08","profile":["http://shinny.org/StructureDefinition/shin-ny-encounter"]},"status":"Entered in Error","class":[{"coding":[{"system":"http://terminology.hl7.org/CodeSystem/v3-ActCode","code":"ACUTE"}]}],"type":[{"coding":[{"system":"http://snomed.info/sct","code":"185317003"}]}],"subject":{"reference":"Patient/AMC-healthelink-20240305-testcase3-MRN"}}},{"fullUrl":"AMC-healthelink-20240305-testcase3-MRN","resource":{"resourceType":"Patient","id":"AMC-healthelink-20240305-testcase3-MRN","meta":{"lastUpdated":"2023-02-02T13:40:12.000Z","profile":["http://shinny.org/StructureDefinition/shinny-patient"]},"language":"myv","extension":[{"extension":[{"url":"ombCategory","valueCoding":{"system":"urn:oid:2.16.840.1.113883.6.238","code":"1142-9","display":"Coquille"}}],"url":"http://hl7.org/fhir/us/core/StructureDefinition/us-core-race"},{"extension":[{"url":"ombCategory","valueCoding":{"system":"urn:oid:2.16.840.1.113883.6.238","code":"2137-8","display":"Spaniard"}}],"url":"http://hl7.org/fhir/us/core/StructureDefinition/us-core-ethnicity"},{"extension":[{"url":"ombCategory","valueCoding":{"system":"http://terminology.hl7.org/CodeSystem/v3-NullFlavor","code":"UNK","display":"unknown"}}],"url":"http://hl7.org/fhir/us/core/StructureDefinition/us-core-birthsex"},{"extension":[{"url":"ombCategory","valueCoding":{"system":"http://snomed.info/sct","code":"20430005","display":"Heterosexual"}}],"url":"http://shinny.org/StructureDefinition/shinny-sexual-orientation"}],"identifier":[{"type":{"coding":[{"system":"http://terminology.hl7.org/CodeSystem/v2-0203","code":"MR"}],"text":"Medical Record Number"},"system":"AMC","value":"healthelink-20240305-testcase3-MRN","assigner":{"reference":"Organization/albany-medical-center-hospital-amc"}},{"type":{"coding":[{"system":"http://terminology.hl7.org/CodeSystem/v2-0203","code":"MA"}]},"system":"http://www.medicaid.gov/","value":"QK65113X","assigner":{"reference":"Organization/2.16.840.1.113883.3.249"}},{"type":{"coding":[{"system":"http://terminology.hl7.org/CodeSystem/v2-0203","code":"PN"}]},"system":"http://www.acme.com/identifiers/patient","value":"healthelinkH0QF7VFUQO"}],"name":[{"text":"Summer Bautista","family":"Bautista","given":["Summer","Bautista"]}],"gender":"Male","birthDate":"2004-06-20","address":[{"text":"519 Larsen Ports Apt. 379 Suite 11","line":["519 Larsen Ports Apt. 379","Suite 11"],"city":"North Tonawanda","state":"NY","postalCode":"14120"}],"communication":[{"language":{"coding":["code","myv"]},"preferred":true}]}}]}